[
  {
    "success": true,
    "timeout": false,
    "failed_images": [],
    "failed_audio": [],
    "failed_video": [],
    "trial_type": "preload",
    "trial_index": 0,
    "plugin_version": "2.1.0",
    "time_elapsed": 1621
  },
  {
    "rt": 3254,
    "response": " ",
    "trial_type": "html-keyboard-response",
    "trial_index": 1,
    "plugin_version": "2.1.0",
    "time_elapsed": 4876
  },
  {
    "image1": "https://jatos.mindprobe.eu/publix/f1ceaa83-3d01-40ae-b283-eef067826a66/dist/b2b7faaf2a59bb4bdfcb862858551c57.webp",
    "image2": "https://jatos.mindprobe.eu/publix/f1ceaa83-3d01-40ae-b283-eef067826a66/dist/afa6e6b610b3cab6c6b449a4e2dd4d02.webp",
    "grid_items": [
      {
        "letter": "N",
        "color": "black"
      },
      {
        "letter": "M",
        "color": "black"
      },
      {
        "letter": "H",
        "color": "black"
      },
      {
        "letter": "S",
        "color": "black"
      },
      {
        "letter": "",
        "color": "white"
      },
      {
        "letter": "",
        "color": "white"
      },
      {
        "letter": "",
        "color": "white"
      },
      {
        "letter": "",
        "color": "white"
      }
    ],
    "target": {
      "letter": "H",
      "color": "black"
    },
    "gaze_direction": "right",
    "grid_position": "left",
    "target_type": "valid",
    "block": "practice",
    "face": "a",
    "window": {
      "dimensions": [
        900,
        1440
      ],
      "isFullscreen": "BODY"
    },
    "rt": 2653,
    "response_type": "key",
    "key_press": "ArrowUp",
    "response": "ArrowUp",
    "avg_frame_time": 16.666,
    "center_x": 400,
    "center_y": 225,
    "trial_type": "psychophysics",
    "trial_index": 2,
    "plugin_version": "4.0.0",
    "time_elapsed": 10939
  },
  {
    "rt": null,
    "response_type": "key",
    "key_press": null,
    "response": null,
    "avg_frame_time": 16.68029999999999,
    "center_x": 400,
    "center_y": 225,
    "trial_type": "psychophysics",
    "trial_index": 3,
    "plugin_version": "4.0.0",
    "time_elapsed": 11445
  },
  {
    "image1": "https://jatos.mindprobe.eu/publix/f1ceaa83-3d01-40ae-b283-eef067826a66/dist/1d4fc1100b57f312ef6f7e81e8502a85.webp",
    "image2": "https://jatos.mindprobe.eu/publix/f1ceaa83-3d01-40ae-b283-eef067826a66/dist/7aa52bcb2291ad2c1eab0a1c309e9ebe.webp",
    "grid_items": [
      {
        "letter": "S",
        "color": "black"
      },
      {
        "letter": "H",
        "color": "black"
      },
      {
        "letter": "T",
        "color": "black"
      },
      {
        "letter": "G",
        "color": "black"
      },
      {
        "letter": "",
        "color": "white"
      },
      {
        "letter": "",
        "color": "white"
      },
      {
        "letter": "",
        "color": "white"
      },
      {
        "letter": "",
        "color": "white"
      }
    ],
    "target": {
      "letter": "C",
      "color": "black"
    },
    "gaze_direction": "left",
    "grid_position": "left",
    "target_type": "invalid",
    "block": "practice",
    "face": "e",
    "window": {
      "dimensions": [
        900,
        1440
      ],
      "isFullscreen": "BODY"
    },
    "rt": 1264,
    "response_type": "key",
    "key_press": "ArrowDown",
    "response": "ArrowDown",
    "avg_frame_time": 16.666000000000007,
    "center_x": 400,
    "center_y": 225,
    "trial_type": "psychophysics",
    "trial_index": 4,
    "plugin_version": "4.0.0",
    "time_elapsed": 16118
  },
  {
    "rt": null,
    "response_type": "key",
    "key_press": null,
    "response": null,
    "avg_frame_time": 16.665999999999986,
    "center_x": 400,
    "center_y": 225,
    "trial_type": "psychophysics",
    "trial_index": 5,
    "plugin_version": "4.0.0",
    "time_elapsed": 16637
  },
  {
    "image1": "https://jatos.mindprobe.eu/publix/f1ceaa83-3d01-40ae-b283-eef067826a66/dist/d429c5287be0e7ceba842a59a42841aa.webp",
    "image2": "https://jatos.mindprobe.eu/publix/f1ceaa83-3d01-40ae-b283-eef067826a66/dist/9e284198aaef8c500a1145e962e8a4d0.webp",
    "grid_items": [
      {
        "letter": "B",
        "color": "black"
      },
      {
        "letter": "M",
        "color": "black"
      },
      {
        "letter": "D",
        "color": "black"
      },
      {
        "letter": "T",
        "color": "black"
      },
      {
        "letter": "",
        "color": "white"
      },
      {
        "letter": "",
        "color": "white"
      },
      {
        "letter": "",
        "color": "white"
      },
      {
        "letter": "",
        "color": "white"
      }
    ],
    "target": {
      "letter": "T",
      "color": "black"
    },
    "gaze_direction": "right",
    "grid_position": "left",
    "target_type": "valid",
    "block": "practice",
    "face": "f",
    "window": {
      "dimensions": [
        900,
        1440
      ],
      "isFullscreen": "BODY"
    },
    "rt": 1001,
    "response_type": "key",
    "key_press": "ArrowDown",
    "response": "ArrowDown",
    "avg_frame_time": 16.666,
    "center_x": 400,
    "center_y": 225,
    "trial_type": "psychophysics",
    "trial_index": 6,
    "plugin_version": "4.0.0",
    "time_elapsed": 21048
  },
  {
    "rt": null,
    "response_type": "key",
    "key_press": null,
    "response": null,
    "avg_frame_time": 16.680266666666647,
    "center_x": 400,
    "center_y": 225,
    "trial_type": "psychophysics",
    "trial_index": 7,
    "plugin_version": "4.0.0",
    "time_elapsed": 21557
  },
  {
    "image1": "https://jatos.mindprobe.eu/publix/f1ceaa83-3d01-40ae-b283-eef067826a66/dist/40dece98c751976c5ae971fb799b576a.webp",
    "image2": "https://jatos.mindprobe.eu/publix/f1ceaa83-3d01-40ae-b283-eef067826a66/dist/a0953907ed0c4f557cc32072c240bdb4.webp",
    "grid_items": [
      {
        "letter": "",
        "color": "white"
      },
      {
        "letter": "",
        "color": "white"
      },
      {
        "letter": "",
        "color": "white"
      },
      {
        "letter": "",
        "color": "white"
      },
      {
        "letter": "F",
        "color": "black"
      },
      {
        "letter": "T",
        "color": "black"
      },
      {
        "letter": "K",
        "color": "black"
      },
      {
        "letter": "R",
        "color": "black"
      }
    ],
    "target": {
      "letter": "F",
      "color": "black"
    },
    "gaze_direction": "right",
    "grid_position": "right",
    "target_type": "valid",
    "block": "practice",
    "face": "b",
    "window": {
      "dimensions": [
        900,
        1440
      ],
      "isFullscreen": "BODY"
    },
    "rt": 949,
    "response_type": "key",
    "key_press": "ArrowDown",
    "response": "ArrowDown",
    "avg_frame_time": 16.666,
    "center_x": 400,
    "center_y": 225,
    "trial_type": "psychophysics",
    "trial_index": 8,
    "plugin_version": "4.0.0",
    "time_elapsed": 25915
  },
  {
    "rt": null,
    "response_type": "key",
    "key_press": null,
    "response": null,
    "avg_frame_time": 16.666000000000075,
    "center_x": 400,
    "center_y": 225,
    "trial_type": "psychophysics",
    "trial_index": 9,
    "plugin_version": "4.0.0",
    "time_elapsed": 26422
  },
  {
    "image1": "https://jatos.mindprobe.eu/publix/f1ceaa83-3d01-40ae-b283-eef067826a66/dist/36ce3cf01c34ab194e87cdb81ee9890f.webp",
    "image2": "https://jatos.mindprobe.eu/publix/f1ceaa83-3d01-40ae-b283-eef067826a66/dist/7abc9556bd3afc91e874c19e0dfb4358.webp",
    "grid_items": [
      {
        "letter": "B",
        "color": "black"
      },
      {
        "letter": "N",
        "color": "black"
      },
      {
        "letter": "L",
        "color": "black"
      },
      {
        "letter": "C",
        "color": "black"
      },
      {
        "letter": "",
        "color": "white"
      },
      {
        "letter": "",
        "color": "white"
      },
      {
        "letter": "",
        "color": "white"
      },
      {
        "letter": "",
        "color": "white"
      }
    ],
    "target": {
      "letter": "D",
      "color": "black"
    },
    "gaze_direction": "right",
    "grid_position": "left",
    "target_type": "invalid",
    "block": "practice",
    "face": "c",
    "window": {
      "dimensions": [
        900,
        1440
      ],
      "isFullscreen": "BODY"
    },
    "rt": 1489,
    "response_type": "key",
    "key_press": "ArrowDown",
    "response": "ArrowDown",
    "avg_frame_time": 16.666000000000007,
    "center_x": 400,
    "center_y": 225,
    "trial_type": "psychophysics",
    "trial_index": 10,
    "plugin_version": "4.0.0",
    "time_elapsed": 31327
  },
  {
    "rt": null,
    "response_type": "key",
    "key_press": null,
    "response": null,
    "avg_frame_time": 16.68079310344835,
    "center_x": 400,
    "center_y": 225,
    "trial_type": "psychophysics",
    "trial_index": 11,
    "plugin_version": "4.0.0",
    "time_elapsed": 31838
  },
  {
    "image1": "https://jatos.mindprobe.eu/publix/f1ceaa83-3d01-40ae-b283-eef067826a66/dist/40dece98c751976c5ae971fb799b576a.webp",
    "image2": "https://jatos.mindprobe.eu/publix/f1ceaa83-3d01-40ae-b283-eef067826a66/dist/539bb0274850bc5c179b9239bd4821e4.webp",
    "grid_items": [
      {
        "letter": "",
        "color": "white"
      },
      {
        "letter": "",
        "color": "white"
      },
      {
        "letter": "",
        "color": "white"
      },
      {
        "letter": "",
        "color": "white"
      },
      {
        "letter": "F",
        "color": "black"
      },
      {
        "letter": "B",
        "color": "black"
      },
      {
        "letter": "L",
        "color": "black"
      },
      {
        "letter": "G",
        "color": "black"
      }
    ],
    "target": {
      "letter": "T",
      "color": "black"
    },
    "gaze_direction": "left",
    "grid_position": "right",
    "target_type": "invalid",
    "block": "practice",
    "face": "b",
    "window": {
      "dimensions": [
        900,
        1440
      ],
      "isFullscreen": "BODY"
    },
    "rt": 1015,
    "response_type": "key",
    "key_press": "ArrowDown",
    "response": "ArrowDown",
    "avg_frame_time": 16.666,
    "center_x": 400,
    "center_y": 225,
    "trial_type": "psychophysics",
    "trial_index": 12,
    "plugin_version": "4.0.0",
    "time_elapsed": 36268
  },
  {
    "rt": null,
    "response_type": "key",
    "key_press": null,
    "response": null,
    "avg_frame_time": 16.665999999999865,
    "center_x": 400,
    "center_y": 225,
    "trial_type": "psychophysics",
    "trial_index": 13,
    "plugin_version": "4.0.0",
    "time_elapsed": 36776
  },
  {
    "image1": "https://jatos.mindprobe.eu/publix/f1ceaa83-3d01-40ae-b283-eef067826a66/dist/1d4fc1100b57f312ef6f7e81e8502a85.webp",
    "image2": "https://jatos.mindprobe.eu/publix/f1ceaa83-3d01-40ae-b283-eef067826a66/dist/7aa52bcb2291ad2c1eab0a1c309e9ebe.webp",
    "grid_items": [
      {
        "letter": "",
        "color": "white"
      },
      {
        "letter": "",
        "color": "white"
      },
      {
        "letter": "",
        "color": "white"
      },
      {
        "letter": "",
        "color": "white"
      },
      {
        "letter": "R",
        "color": "black"
      },
      {
        "letter": "N",
        "color": "black"
      },
      {
        "letter": "F",
        "color": "black"
      },
      {
        "letter": "D",
        "color": "black"
      }
    ],
    "target": {
      "letter": "D",
      "color": "black"
    },
    "gaze_direction": "left",
    "grid_position": "right",
    "target_type": "valid",
    "block": "practice",
    "face": "e",
    "window": {
      "dimensions": [
        900,
        1440
      ],
      "isFullscreen": "BODY"
    },
    "rt": 1112,
    "response_type": "key",
    "key_press": "ArrowUp",
    "response": "ArrowUp",
    "avg_frame_time": 16.666,
    "center_x": 400,
    "center_y": 225,
    "trial_type": "psychophysics",
    "trial_index": 14,
    "plugin_version": "4.0.0",
    "time_elapsed": 41302
  },
  {
    "rt": null,
    "response_type": "key",
    "key_press": null,
    "response": null,
    "avg_frame_time": 16.68026666666677,
    "center_x": 400,
    "center_y": 225,
    "trial_type": "psychophysics",
    "trial_index": 15,
    "plugin_version": "4.0.0",
    "time_elapsed": 41813
  },
  {
    "image1": "https://jatos.mindprobe.eu/publix/f1ceaa83-3d01-40ae-b283-eef067826a66/dist/0738b36f5c5284a1fbe6de5047928226.webp",
    "image2": "https://jatos.mindprobe.eu/publix/f1ceaa83-3d01-40ae-b283-eef067826a66/dist/48e5157934b56d46aee0926365abe09d.webp",
    "grid_items": [
      {
        "letter": "H",
        "color": "black"
      },
      {
        "letter": "G",
        "color": "black"
      },
      {
        "letter": "P",
        "color": "black"
      },
      {
        "letter": "B",
        "color": "black"
      },
      {
        "letter": "",
        "color": "white"
      },
      {
        "letter": "",
        "color": "white"
      },
      {
        "letter": "",
        "color": "white"
      },
      {
        "letter": "",
        "color": "white"
      }
    ],
    "target": {
      "letter": "H",
      "color": "black"
    },
    "gaze_direction": "right",
    "grid_position": "left",
    "target_type": "valid",
    "block": "practice",
    "face": "d",
    "window": {
      "dimensions": [
        900,
        1440
      ],
      "isFullscreen": "BODY"
    },
    "rt": 1434,
    "response_type": "key",
    "key_press": "ArrowUp",
    "response": "ArrowUp",
    "avg_frame_time": 16.665999999999997,
    "center_x": 400,
    "center_y": 225,
    "trial_type": "psychophysics",
    "trial_index": 16,
    "plugin_version": "4.0.0",
    "time_elapsed": 46664
  },
  {
    "rt": null,
    "response_type": "key",
    "key_press": null,
    "response": null,
    "avg_frame_time": 16.666000000000107,
    "center_x": 400,
    "center_y": 225,
    "trial_type": "psychophysics",
    "trial_index": 17,
    "plugin_version": "4.0.0",
    "time_elapsed": 47182
  },
  {
    "image1": "https://jatos.mindprobe.eu/publix/f1ceaa83-3d01-40ae-b283-eef067826a66/dist/b2b7faaf2a59bb4bdfcb862858551c57.webp",
    "image2": "https://jatos.mindprobe.eu/publix/f1ceaa83-3d01-40ae-b283-eef067826a66/dist/afa6e6b610b3cab6c6b449a4e2dd4d02.webp",
    "grid_items": [
      {
        "letter": "K",
        "color": "black"
      },
      {
        "letter": "L",
        "color": "black"
      },
      {
        "letter": "S",
        "color": "black"
      },
      {
        "letter": "F",
        "color": "black"
      },
      {
        "letter": "",
        "color": "white"
      },
      {
        "letter": "",
        "color": "white"
      },
      {
        "letter": "",
        "color": "white"
      },
      {
        "letter": "",
        "color": "white"
      }
    ],
    "target": {
      "letter": "C",
      "color": "black"
    },
    "gaze_direction": "right",
    "grid_position": "left",
    "target_type": "invalid",
    "block": "practice",
    "face": "a",
    "window": {
      "dimensions": [
        900,
        1440
      ],
      "isFullscreen": "BODY"
    },
    "rt": 988,
    "response_type": "key",
    "key_press": "ArrowDown",
    "response": "ArrowDown",
    "avg_frame_time": 16.667637404580134,
    "center_x": 400,
    "center_y": 225,
    "trial_type": "psychophysics",
    "trial_index": 18,
    "plugin_version": "4.0.0",
    "time_elapsed": 51585
  },
  {
    "rt": null,
    "response_type": "key",
    "key_press": null,
    "response": null,
    "avg_frame_time": 16.665999999999865,
    "center_x": 400,
    "center_y": 225,
    "trial_type": "psychophysics",
    "trial_index": 19,
    "plugin_version": "4.0.0",
    "time_elapsed": 52101
  },
  {
    "image1": "https://jatos.mindprobe.eu/publix/f1ceaa83-3d01-40ae-b283-eef067826a66/dist/0738b36f5c5284a1fbe6de5047928226.webp",
    "image2": "https://jatos.mindprobe.eu/publix/f1ceaa83-3d01-40ae-b283-eef067826a66/dist/c2c6af7a7e254bf30109d9388b53b5d8.webp",
    "grid_items": [
      {
        "letter": "T",
        "color": "black"
      },
      {
        "letter": "D",
        "color": "black"
      },
      {
        "letter": "G",
        "color": "black"
      },
      {
        "letter": "M",
        "color": "black"
      },
      {
        "letter": "",
        "color": "white"
      },
      {
        "letter": "",
        "color": "white"
      },
      {
        "letter": "",
        "color": "white"
      },
      {
        "letter": "",
        "color": "white"
      }
    ],
    "target": {
      "letter": "L",
      "color": "black"
    },
    "gaze_direction": "left",
    "grid_position": "left",
    "target_type": "invalid",
    "block": "practice",
    "face": "d",
    "window": {
      "dimensions": [
        900,
        1440
      ],
      "isFullscreen": "BODY"
    },
    "rt": 1020,
    "response_type": "key",
    "key_press": "ArrowDown",
    "response": "ArrowDown",
    "avg_frame_time": 16.666,
    "center_x": 400,
    "center_y": 225,
    "trial_type": "psychophysics",
    "trial_index": 20,
    "plugin_version": "4.0.0",
    "time_elapsed": 56529
  },
  {
    "rt": null,
    "response_type": "key",
    "key_press": null,
    "response": null,
    "avg_frame_time": 16.665999999999947,
    "center_x": 400,
    "center_y": 225,
    "trial_type": "psychophysics",
    "trial_index": 21,
    "plugin_version": "4.0.0",
    "time_elapsed": 57039
  },
  {
    "image1": "https://jatos.mindprobe.eu/publix/f1ceaa83-3d01-40ae-b283-eef067826a66/dist/d429c5287be0e7ceba842a59a42841aa.webp",
    "image2": "https://jatos.mindprobe.eu/publix/f1ceaa83-3d01-40ae-b283-eef067826a66/dist/7c19086664cedcdfc2bed264c3b04bfa.webp",
    "grid_items": [
      {
        "letter": "",
        "color": "white"
      },
      {
        "letter": "",
        "color": "white"
      },
      {
        "letter": "",
        "color": "white"
      },
      {
        "letter": "",
        "color": "white"
      },
      {
        "letter": "P",
        "color": "black"
      },
      {
        "letter": "H",
        "color": "black"
      },
      {
        "letter": "T",
        "color": "black"
      },
      {
        "letter": "D",
        "color": "black"
      }
    ],
    "target": {
      "letter": "M",
      "color": "black"
    },
    "gaze_direction": "left",
    "grid_position": "right",
    "target_type": "invalid",
    "block": "practice",
    "face": "f",
    "window": {
      "dimensions": [
        900,
        1440
      ],
      "isFullscreen": "BODY"
    },
    "rt": 791,
    "response_type": "key",
    "key_press": "ArrowDown",
    "response": "ArrowDown",
    "avg_frame_time": 16.666000000000018,
    "center_x": 400,
    "center_y": 225,
    "trial_type": "psychophysics",
    "trial_index": 22,
    "plugin_version": "4.0.0",
    "time_elapsed": 61246
  },
  {
    "rt": null,
    "response_type": "key",
    "key_press": null,
    "response": null,
    "avg_frame_time": 16.68029999999999,
    "center_x": 400,
    "center_y": 225,
    "trial_type": "psychophysics",
    "trial_index": 23,
    "plugin_version": "4.0.0",
    "time_elapsed": 61765
  },
  {
    "image1": "https://jatos.mindprobe.eu/publix/f1ceaa83-3d01-40ae-b283-eef067826a66/dist/36ce3cf01c34ab194e87cdb81ee9890f.webp",
    "image2": "https://jatos.mindprobe.eu/publix/f1ceaa83-3d01-40ae-b283-eef067826a66/dist/7abc9556bd3afc91e874c19e0dfb4358.webp",
    "grid_items": [
      {
        "letter": "T",
        "color": "black"
      },
      {
        "letter": "C",
        "color": "black"
      },
      {
        "letter": "R",
        "color": "black"
      },
      {
        "letter": "M",
        "color": "black"
      },
      {
        "letter": "",
        "color": "white"
      },
      {
        "letter": "",
        "color": "white"
      },
      {
        "letter": "",
        "color": "white"
      },
      {
        "letter": "",
        "color": "white"
      }
    ],
    "target": {
      "letter": "M",
      "color": "black"
    },
    "gaze_direction": "right",
    "grid_position": "left",
    "target_type": "valid",
    "block": "practice",
    "face": "c",
    "window": {
      "dimensions": [
        900,
        1440
      ],
      "isFullscreen": "BODY"
    },
    "rt": 982,
    "response_type": "key",
    "key_press": "ArrowUp",
    "response": "ArrowUp",
    "avg_frame_time": 16.666000000000004,
    "center_x": 400,
    "center_y": 225,
    "trial_type": "psychophysics",
    "trial_index": 24,
    "plugin_version": "4.0.0",
    "time_elapsed": 66156
  },
  {
    "rt": null,
    "response_type": "key",
    "key_press": null,
    "response": null,
    "avg_frame_time": 16.665999999999865,
    "center_x": 400,
    "center_y": 225,
    "trial_type": "psychophysics",
    "trial_index": 25,
    "plugin_version": "4.0.0",
    "time_elapsed": 66670
  },
  {
    "rt": 824,
    "response": 0,
    "trial_type": "html-button-response",
    "trial_index": 26,
    "plugin_version": "2.1.0",
    "time_elapsed": 67494
  },
  {
    "rt": 4409,
    "response": " ",
    "trial_type": "html-keyboard-response",
    "trial_index": 27,
    "plugin_version": "2.1.0",
    "time_elapsed": 71911
  },
  {
    "image1": "https://jatos.mindprobe.eu/publix/f1ceaa83-3d01-40ae-b283-eef067826a66/dist/36ce3cf01c34ab194e87cdb81ee9890f.webp",
    "image2": "https://jatos.mindprobe.eu/publix/f1ceaa83-3d01-40ae-b283-eef067826a66/dist/7abc9556bd3afc91e874c19e0dfb4358.webp",
    "grid_items": [
      {
        "letter": "G",
        "color": "black"
      },
      {
        "letter": "M",
        "color": "black"
      },
      {
        "letter": "P",
        "color": "black"
      },
      {
        "letter": "H",
        "color": "black"
      },
      {
        "letter": "",
        "color": "white"
      },
      {
        "letter": "",
        "color": "white"
      },
      {
        "letter": "",
        "color": "white"
      },
      {
        "letter": "",
        "color": "white"
      }
    ],
    "target": {
      "letter": "P",
      "color": "black"
    },
    "gaze_direction": "right",
    "grid_position": "left",
    "target_type": "valid",
    "block": "block-1",
    "face": "c",
    "window": {
      "dimensions": [
        900,
        1440
      ],
      "isFullscreen": "BODY"
    },
    "rt": 720,
    "response_type": "key",
    "key_press": "ArrowUp",
    "response": "ArrowUp",
    "avg_frame_time": 16.667028455284523,
    "center_x": 400,
    "center_y": 225,
    "trial_type": "psychophysics",
    "trial_index": 28,
    "plugin_version": "4.0.0",
    "time_elapsed": 76038
  },
  {
    "rt": null,
    "response_type": "key",
    "key_press": null,
    "response": null,
    "avg_frame_time": 16.665999999999865,
    "center_x": 400,
    "center_y": 225,
    "trial_type": "psychophysics",
    "trial_index": 29,
    "plugin_version": "4.0.0",
    "time_elapsed": 76549
  },
  {
    "image1": "https://jatos.mindprobe.eu/publix/f1ceaa83-3d01-40ae-b283-eef067826a66/dist/40dece98c751976c5ae971fb799b576a.webp",
    "image2": "https://jatos.mindprobe.eu/publix/f1ceaa83-3d01-40ae-b283-eef067826a66/dist/a0953907ed0c4f557cc32072c240bdb4.webp",
    "grid_items": [
      {
        "letter": "C",
        "color": "black"
      },
      {
        "letter": "H",
        "color": "black"
      },
      {
        "letter": "L",
        "color": "black"
      },
      {
        "letter": "N",
        "color": "black"
      },
      {
        "letter": "",
        "color": "white"
      },
      {
        "letter": "",
        "color": "white"
      },
      {
        "letter": "",
        "color": "white"
      },
      {
        "letter": "",
        "color": "white"
      }
    ],
    "target": {
      "letter": "C",
      "color": "black"
    },
    "gaze_direction": "right",
    "grid_position": "left",
    "target_type": "valid",
    "block": "block-1",
    "face": "b",
    "window": {
      "dimensions": [
        900,
        1440
      ],
      "isFullscreen": "BODY"
    },
    "rt": 789,
    "response_type": "key",
    "key_press": "ArrowDown",
    "response": "ArrowDown",
    "avg_frame_time": 16.66599999999999,
    "center_x": 400,
    "center_y": 225,
    "trial_type": "psychophysics",
    "trial_index": 30,
    "plugin_version": "4.0.0",
    "time_elapsed": 80747
  },
  {
    "rt": null,
    "response_type": "key",
    "key_press": null,
    "response": null,
    "avg_frame_time": 16.66600000000035,
    "center_x": 400,
    "center_y": 225,
    "trial_type": "psychophysics",
    "trial_index": 31,
    "plugin_version": "4.0.0",
    "time_elapsed": 81256
  },
  {
    "image1": "https://jatos.mindprobe.eu/publix/f1ceaa83-3d01-40ae-b283-eef067826a66/dist/36ce3cf01c34ab194e87cdb81ee9890f.webp",
    "image2": "https://jatos.mindprobe.eu/publix/f1ceaa83-3d01-40ae-b283-eef067826a66/dist/6ef25f867bb912257ed8a75458a113f3.webp",
    "grid_items": [
      {
        "letter": "",
        "color": "white"
      },
      {
        "letter": "",
        "color": "white"
      },
      {
        "letter": "",
        "color": "white"
      },
      {
        "letter": "",
        "color": "white"
      },
      {
        "letter": "M",
        "color": "black"
      },
      {
        "letter": "F",
        "color": "black"
      },
      {
        "letter": "T",
        "color": "black"
      },
      {
        "letter": "L",
        "color": "black"
      }
    ],
    "target": {
      "letter": "H",
      "color": "black"
    },
    "gaze_direction": "left",
    "grid_position": "right",
    "target_type": "invalid",
    "block": "block-1",
    "face": "c",
    "window": {
      "dimensions": [
        900,
        1440
      ],
      "isFullscreen": "BODY"
    },
    "rt": 778,
    "response_type": "key",
    "key_press": "ArrowDown",
    "response": "ArrowDown",
    "avg_frame_time": 16.66847200000001,
    "center_x": 400,
    "center_y": 225,
    "trial_type": "psychophysics",
    "trial_index": 32,
    "plugin_version": "4.0.0",
    "time_elapsed": 85448
  },
  {
    "rt": null,
    "response_type": "key",
    "key_press": null,
    "response": null,
    "avg_frame_time": 16.665999999999865,
    "center_x": 400,
    "center_y": 225,
    "trial_type": "psychophysics",
    "trial_index": 33,
    "plugin_version": "4.0.0",
    "time_elapsed": 85959
  },
  {
    "image1": "https://jatos.mindprobe.eu/publix/f1ceaa83-3d01-40ae-b283-eef067826a66/dist/40dece98c751976c5ae971fb799b576a.webp",
    "image2": "https://jatos.mindprobe.eu/publix/f1ceaa83-3d01-40ae-b283-eef067826a66/dist/a0953907ed0c4f557cc32072c240bdb4.webp",
    "grid_items": [
      {
        "letter": "",
        "color": "white"
      },
      {
        "letter": "",
        "color": "white"
      },
      {
        "letter": "",
        "color": "white"
      },
      {
        "letter": "",
        "color": "white"
      },
      {
        "letter": "D",
        "color": "black"
      },
      {
        "letter": "L",
        "color": "black"
      },
      {
        "letter": "M",
        "color": "black"
      },
      {
        "letter": "P",
        "color": "black"
      }
    ],
    "target": {
      "letter": "R",
      "color": "black"
    },
    "gaze_direction": "right",
    "grid_position": "right",
    "target_type": "invalid",
    "block": "block-1",
    "face": "b",
    "window": {
      "dimensions": [
        900,
        1440
      ],
      "isFullscreen": "BODY"
    },
    "rt": 853,
    "response_type": "key",
    "key_press": "ArrowDown",
    "response": "ArrowDown",
    "avg_frame_time": 16.666000000000018,
    "center_x": 400,
    "center_y": 225,
    "trial_type": "psychophysics",
    "trial_index": 34,
    "plugin_version": "4.0.0",
    "time_elapsed": 90219
  },
  {
    "rt": null,
    "response_type": "key",
    "key_press": null,
    "response": null,
    "avg_frame_time": 16.665999999999947,
    "center_x": 400,
    "center_y": 225,
    "trial_type": "psychophysics",
    "trial_index": 35,
    "plugin_version": "4.0.0",
    "time_elapsed": 90725
  },
  {
    "image1": "https://jatos.mindprobe.eu/publix/f1ceaa83-3d01-40ae-b283-eef067826a66/dist/1d4fc1100b57f312ef6f7e81e8502a85.webp",
    "image2": "https://jatos.mindprobe.eu/publix/f1ceaa83-3d01-40ae-b283-eef067826a66/dist/f133a138299afe57854b3487f1de2960.webp",
    "grid_items": [
      {
        "letter": "L",
        "color": "black"
      },
      {
        "letter": "G",
        "color": "black"
      },
      {
        "letter": "N",
        "color": "black"
      },
      {
        "letter": "S",
        "color": "black"
      },
      {
        "letter": "",
        "color": "white"
      },
      {
        "letter": "",
        "color": "white"
      },
      {
        "letter": "",
        "color": "white"
      },
      {
        "letter": "",
        "color": "white"
      }
    ],
    "target": {
      "letter": "N",
      "color": "black"
    },
    "gaze_direction": "right",
    "grid_position": "left",
    "target_type": "valid",
    "block": "block-1",
    "face": "e",
    "window": {
      "dimensions": [
        900,
        1440
      ],
      "isFullscreen": "BODY"
    },
    "rt": null,
    "response_type": "key",
    "key_press": null,
    "response": null,
    "avg_frame_time": 16.66713793103448,
    "center_x": 400,
    "center_y": 225,
    "trial_type": "psychophysics",
    "trial_index": 36,
    "plugin_version": "4.0.0",
    "time_elapsed": 97037
  },
  {
    "rt": null,
    "response_type": "key",
    "key_press": null,
    "response": null,
    "avg_frame_time": 16.665999999999865,
    "center_x": 400,
    "center_y": 225,
    "trial_type": "psychophysics",
    "trial_index": 37,
    "plugin_version": "4.0.0",
    "time_elapsed": 97550
  },
  {
    "image1": "https://jatos.mindprobe.eu/publix/f1ceaa83-3d01-40ae-b283-eef067826a66/dist/1d4fc1100b57f312ef6f7e81e8502a85.webp",
    "image2": "https://jatos.mindprobe.eu/publix/f1ceaa83-3d01-40ae-b283-eef067826a66/dist/f133a138299afe57854b3487f1de2960.webp",
    "grid_items": [
      {
        "letter": "N",
        "color": "black"
      },
      {
        "letter": "D",
        "color": "black"
      },
      {
        "letter": "S",
        "color": "black"
      },
      {
        "letter": "H",
        "color": "black"
      },
      {
        "letter": "",
        "color": "white"
      },
      {
        "letter": "",
        "color": "white"
      },
      {
        "letter": "",
        "color": "white"
      },
      {
        "letter": "",
        "color": "white"
      }
    ],
    "target": {
      "letter": "K",
      "color": "black"
    },
    "gaze_direction": "right",
    "grid_position": "left",
    "target_type": "invalid",
    "block": "block-1",
    "face": "e",
    "window": {
      "dimensions": [
        900,
        1440
      ],
      "isFullscreen": "BODY"
    },
    "rt": 726,
    "response_type": "key",
    "key_press": "ArrowDown",
    "response": "ArrowDown",
    "avg_frame_time": 16.666000000000032,
    "center_x": 400,
    "center_y": 225,
    "trial_type": "psychophysics",
    "trial_index": 38,
    "plugin_version": "4.0.0",
    "time_elapsed": 101683
  },
  {
    "rt": null,
    "response_type": "key",
    "key_press": null,
    "response": null,
    "avg_frame_time": 16.68029999999999,
    "center_x": 400,
    "center_y": 225,
    "trial_type": "psychophysics",
    "trial_index": 39,
    "plugin_version": "4.0.0",
    "time_elapsed": 102197
  },
  {
    "image1": "https://jatos.mindprobe.eu/publix/f1ceaa83-3d01-40ae-b283-eef067826a66/dist/d429c5287be0e7ceba842a59a42841aa.webp",
    "image2": "https://jatos.mindprobe.eu/publix/f1ceaa83-3d01-40ae-b283-eef067826a66/dist/7c19086664cedcdfc2bed264c3b04bfa.webp",
    "grid_items": [
      {
        "letter": "K",
        "color": "black"
      },
      {
        "letter": "P",
        "color": "black"
      },
      {
        "letter": "H",
        "color": "black"
      },
      {
        "letter": "N",
        "color": "black"
      },
      {
        "letter": "",
        "color": "white"
      },
      {
        "letter": "",
        "color": "white"
      },
      {
        "letter": "",
        "color": "white"
      },
      {
        "letter": "",
        "color": "white"
      }
    ],
    "target": {
      "letter": "T",
      "color": "black"
    },
    "gaze_direction": "left",
    "grid_position": "left",
    "target_type": "invalid",
    "block": "block-1",
    "face": "f",
    "window": {
      "dimensions": [
        900,
        1440
      ],
      "isFullscreen": "BODY"
    },
    "rt": 1279,
    "response_type": "key",
    "key_press": "ArrowDown",
    "response": "ArrowDown",
    "avg_frame_time": 16.665999999999986,
    "center_x": 400,
    "center_y": 225,
    "trial_type": "psychophysics",
    "trial_index": 40,
    "plugin_version": "4.0.0",
    "time_elapsed": 106887
  },
  {
    "rt": null,
    "response_type": "key",
    "key_press": null,
    "response": null,
    "avg_frame_time": 16.665999999999865,
    "center_x": 400,
    "center_y": 225,
    "trial_type": "psychophysics",
    "trial_index": 41,
    "plugin_version": "4.0.0",
    "time_elapsed": 107398
  },
  {
    "image1": "https://jatos.mindprobe.eu/publix/f1ceaa83-3d01-40ae-b283-eef067826a66/dist/40dece98c751976c5ae971fb799b576a.webp",
    "image2": "https://jatos.mindprobe.eu/publix/f1ceaa83-3d01-40ae-b283-eef067826a66/dist/a0953907ed0c4f557cc32072c240bdb4.webp",
    "grid_items": [
      {
        "letter": "G",
        "color": "black"
      },
      {
        "letter": "K",
        "color": "black"
      },
      {
        "letter": "B",
        "color": "black"
      },
      {
        "letter": "S",
        "color": "black"
      },
      {
        "letter": "",
        "color": "white"
      },
      {
        "letter": "",
        "color": "white"
      },
      {
        "letter": "",
        "color": "white"
      },
      {
        "letter": "",
        "color": "white"
      }
    ],
    "target": {
      "letter": "N",
      "color": "black"
    },
    "gaze_direction": "right",
    "grid_position": "left",
    "target_type": "invalid",
    "block": "block-1",
    "face": "b",
    "window": {
      "dimensions": [
        900,
        1440
      ],
      "isFullscreen": "BODY"
    },
    "rt": 805,
    "response_type": "key",
    "key_press": "ArrowDown",
    "response": "ArrowDown",
    "avg_frame_time": 16.66599999999999,
    "center_x": 400,
    "center_y": 225,
    "trial_type": "psychophysics",
    "trial_index": 42,
    "plugin_version": "4.0.0",
    "time_elapsed": 111611
  },
  {
    "rt": null,
    "response_type": "key",
    "key_press": null,
    "response": null,
    "avg_frame_time": 16.68079310344785,
    "center_x": 400,
    "center_y": 225,
    "trial_type": "psychophysics",
    "trial_index": 43,
    "plugin_version": "4.0.0",
    "time_elapsed": 112125
  },
  {
    "image1": "https://jatos.mindprobe.eu/publix/f1ceaa83-3d01-40ae-b283-eef067826a66/dist/d429c5287be0e7ceba842a59a42841aa.webp",
    "image2": "https://jatos.mindprobe.eu/publix/f1ceaa83-3d01-40ae-b283-eef067826a66/dist/7c19086664cedcdfc2bed264c3b04bfa.webp",
    "grid_items": [
      {
        "letter": "",
        "color": "white"
      },
      {
        "letter": "",
        "color": "white"
      },
      {
        "letter": "",
        "color": "white"
      },
      {
        "letter": "",
        "color": "white"
      },
      {
        "letter": "C",
        "color": "black"
      },
      {
        "letter": "T",
        "color": "black"
      },
      {
        "letter": "M",
        "color": "black"
      },
      {
        "letter": "G",
        "color": "black"
      }
    ],
    "target": {
      "letter": "S",
      "color": "black"
    },
    "gaze_direction": "left",
    "grid_position": "right",
    "target_type": "invalid",
    "block": "block-1",
    "face": "f",
    "window": {
      "dimensions": [
        900,
        1440
      ],
      "isFullscreen": "BODY"
    },
    "rt": 656,
    "response_type": "key",
    "key_press": "ArrowDown",
    "response": "ArrowDown",
    "avg_frame_time": 16.666000000000015,
    "center_x": 400,
    "center_y": 225,
    "trial_type": "psychophysics",
    "trial_index": 44,
    "plugin_version": "4.0.0",
    "time_elapsed": 116197
  },
  {
    "rt": null,
    "response_type": "key",
    "key_press": null,
    "response": null,
    "avg_frame_time": 16.665999999999865,
    "center_x": 400,
    "center_y": 225,
    "trial_type": "psychophysics",
    "trial_index": 45,
    "plugin_version": "4.0.0",
    "time_elapsed": 116705
  },
  {
    "image1": "https://jatos.mindprobe.eu/publix/f1ceaa83-3d01-40ae-b283-eef067826a66/dist/1d4fc1100b57f312ef6f7e81e8502a85.webp",
    "image2": "https://jatos.mindprobe.eu/publix/f1ceaa83-3d01-40ae-b283-eef067826a66/dist/7aa52bcb2291ad2c1eab0a1c309e9ebe.webp",
    "grid_items": [
      {
        "letter": "C",
        "color": "black"
      },
      {
        "letter": "D",
        "color": "black"
      },
      {
        "letter": "P",
        "color": "black"
      },
      {
        "letter": "M",
        "color": "black"
      },
      {
        "letter": "",
        "color": "white"
      },
      {
        "letter": "",
        "color": "white"
      },
      {
        "letter": "",
        "color": "white"
      },
      {
        "letter": "",
        "color": "white"
      }
    ],
    "target": {
      "letter": "T",
      "color": "black"
    },
    "gaze_direction": "left",
    "grid_position": "left",
    "target_type": "invalid",
    "block": "block-1",
    "face": "e",
    "window": {
      "dimensions": [
        900,
        1440
      ],
      "isFullscreen": "BODY"
    },
    "rt": 629,
    "response_type": "key",
    "key_press": "ArrowDown",
    "response": "ArrowDown",
    "avg_frame_time": 16.666000000000036,
    "center_x": 400,
    "center_y": 225,
    "trial_type": "psychophysics",
    "trial_index": 46,
    "plugin_version": "4.0.0",
    "time_elapsed": 120746
  },
  {
    "rt": null,
    "response_type": "key",
    "key_press": null,
    "response": null,
    "avg_frame_time": 16.665999999999947,
    "center_x": 400,
    "center_y": 225,
    "trial_type": "psychophysics",
    "trial_index": 47,
    "plugin_version": "4.0.0",
    "time_elapsed": 121258
  },
  {
    "image1": "https://jatos.mindprobe.eu/publix/f1ceaa83-3d01-40ae-b283-eef067826a66/dist/b2b7faaf2a59bb4bdfcb862858551c57.webp",
    "image2": "https://jatos.mindprobe.eu/publix/f1ceaa83-3d01-40ae-b283-eef067826a66/dist/afa6e6b610b3cab6c6b449a4e2dd4d02.webp",
    "grid_items": [
      {
        "letter": "N",
        "color": "black"
      },
      {
        "letter": "F",
        "color": "black"
      },
      {
        "letter": "L",
        "color": "black"
      },
      {
        "letter": "M",
        "color": "black"
      },
      {
        "letter": "",
        "color": "white"
      },
      {
        "letter": "",
        "color": "white"
      },
      {
        "letter": "",
        "color": "white"
      },
      {
        "letter": "",
        "color": "white"
      }
    ],
    "target": {
      "letter": "T",
      "color": "black"
    },
    "gaze_direction": "right",
    "grid_position": "left",
    "target_type": "invalid",
    "block": "block-1",
    "face": "a",
    "window": {
      "dimensions": [
        900,
        1440
      ],
      "isFullscreen": "BODY"
    },
    "rt": 1072,
    "response_type": "key",
    "key_press": "ArrowDown",
    "response": "ArrowDown",
    "avg_frame_time": 16.66760074626866,
    "center_x": 400,
    "center_y": 225,
    "trial_type": "psychophysics",
    "trial_index": 48,
    "plugin_version": "4.0.0",
    "time_elapsed": 125743
  },
  {
    "rt": null,
    "response_type": "key",
    "key_press": null,
    "response": null,
    "avg_frame_time": 16.665999999999947,
    "center_x": 400,
    "center_y": 225,
    "trial_type": "psychophysics",
    "trial_index": 49,
    "plugin_version": "4.0.0",
    "time_elapsed": 126258
  },
  {
    "image1": "https://jatos.mindprobe.eu/publix/f1ceaa83-3d01-40ae-b283-eef067826a66/dist/36ce3cf01c34ab194e87cdb81ee9890f.webp",
    "image2": "https://jatos.mindprobe.eu/publix/f1ceaa83-3d01-40ae-b283-eef067826a66/dist/7abc9556bd3afc91e874c19e0dfb4358.webp",
    "grid_items": [
      {
        "letter": "",
        "color": "white"
      },
      {
        "letter": "",
        "color": "white"
      },
      {
        "letter": "",
        "color": "white"
      },
      {
        "letter": "",
        "color": "white"
      },
      {
        "letter": "L",
        "color": "black"
      },
      {
        "letter": "S",
        "color": "black"
      },
      {
        "letter": "C",
        "color": "black"
      },
      {
        "letter": "B",
        "color": "black"
      }
    ],
    "target": {
      "letter": "T",
      "color": "black"
    },
    "gaze_direction": "right",
    "grid_position": "right",
    "target_type": "invalid",
    "block": "block-1",
    "face": "c",
    "window": {
      "dimensions": [
        900,
        1440
      ],
      "isFullscreen": "BODY"
    },
    "rt": 798,
    "response_type": "key",
    "key_press": "ArrowDown",
    "response": "ArrowDown",
    "avg_frame_time": 16.665999999999933,
    "center_x": 400,
    "center_y": 225,
    "trial_type": "psychophysics",
    "trial_index": 50,
    "plugin_version": "4.0.0",
    "time_elapsed": 130473
  },
  {
    "rt": null,
    "response_type": "key",
    "key_press": null,
    "response": null,
    "avg_frame_time": 16.66599999999938,
    "center_x": 400,
    "center_y": 225,
    "trial_type": "psychophysics",
    "trial_index": 51,
    "plugin_version": "4.0.0",
    "time_elapsed": 130990
  },
  {
    "image1": "https://jatos.mindprobe.eu/publix/f1ceaa83-3d01-40ae-b283-eef067826a66/dist/d429c5287be0e7ceba842a59a42841aa.webp",
    "image2": "https://jatos.mindprobe.eu/publix/f1ceaa83-3d01-40ae-b283-eef067826a66/dist/7c19086664cedcdfc2bed264c3b04bfa.webp",
    "grid_items": [
      {
        "letter": "",
        "color": "white"
      },
      {
        "letter": "",
        "color": "white"
      },
      {
        "letter": "",
        "color": "white"
      },
      {
        "letter": "",
        "color": "white"
      },
      {
        "letter": "D",
        "color": "black"
      },
      {
        "letter": "L",
        "color": "black"
      },
      {
        "letter": "P",
        "color": "black"
      },
      {
        "letter": "K",
        "color": "black"
      }
    ],
    "target": {
      "letter": "K",
      "color": "black"
    },
    "gaze_direction": "left",
    "grid_position": "right",
    "target_type": "valid",
    "block": "block-1",
    "face": "f",
    "window": {
      "dimensions": [
        900,
        1440
      ],
      "isFullscreen": "BODY"
    },
    "rt": 816,
    "response_type": "key",
    "key_press": "ArrowUp",
    "response": "ArrowUp",
    "avg_frame_time": 16.667702380952374,
    "center_x": 400,
    "center_y": 225,
    "trial_type": "psychophysics",
    "trial_index": 52,
    "plugin_version": "4.0.0",
    "time_elapsed": 135222
  },
  {
    "rt": null,
    "response_type": "key",
    "key_press": null,
    "response": null,
    "avg_frame_time": 16.66599999999938,
    "center_x": 400,
    "center_y": 225,
    "trial_type": "psychophysics",
    "trial_index": 53,
    "plugin_version": "4.0.0",
    "time_elapsed": 135733
  },
  {
    "image1": "https://jatos.mindprobe.eu/publix/f1ceaa83-3d01-40ae-b283-eef067826a66/dist/b2b7faaf2a59bb4bdfcb862858551c57.webp",
    "image2": "https://jatos.mindprobe.eu/publix/f1ceaa83-3d01-40ae-b283-eef067826a66/dist/afa6e6b610b3cab6c6b449a4e2dd4d02.webp",
    "grid_items": [
      {
        "letter": "",
        "color": "white"
      },
      {
        "letter": "",
        "color": "white"
      },
      {
        "letter": "",
        "color": "white"
      },
      {
        "letter": "",
        "color": "white"
      },
      {
        "letter": "H",
        "color": "black"
      },
      {
        "letter": "M",
        "color": "black"
      },
      {
        "letter": "C",
        "color": "black"
      },
      {
        "letter": "F",
        "color": "black"
      }
    ],
    "target": {
      "letter": "K",
      "color": "black"
    },
    "gaze_direction": "right",
    "grid_position": "right",
    "target_type": "invalid",
    "block": "block-1",
    "face": "a",
    "window": {
      "dimensions": [
        900,
        1440
      ],
      "isFullscreen": "BODY"
    },
    "rt": 769,
    "response_type": "key",
    "key_press": "ArrowDown",
    "response": "ArrowDown",
    "avg_frame_time": 16.66600000000001,
    "center_x": 400,
    "center_y": 225,
    "trial_type": "psychophysics",
    "trial_index": 54,
    "plugin_version": "4.0.0",
    "time_elapsed": 139919
  },
  {
    "rt": null,
    "response_type": "key",
    "key_press": null,
    "response": null,
    "avg_frame_time": 16.66600000000035,
    "center_x": 400,
    "center_y": 225,
    "trial_type": "psychophysics",
    "trial_index": 55,
    "plugin_version": "4.0.0",
    "time_elapsed": 140438
  },
  {
    "image1": "https://jatos.mindprobe.eu/publix/f1ceaa83-3d01-40ae-b283-eef067826a66/dist/0738b36f5c5284a1fbe6de5047928226.webp",
    "image2": "https://jatos.mindprobe.eu/publix/f1ceaa83-3d01-40ae-b283-eef067826a66/dist/48e5157934b56d46aee0926365abe09d.webp",
    "grid_items": [
      {
        "letter": "H",
        "color": "black"
      },
      {
        "letter": "D",
        "color": "black"
      },
      {
        "letter": "C",
        "color": "black"
      },
      {
        "letter": "R",
        "color": "black"
      },
      {
        "letter": "",
        "color": "white"
      },
      {
        "letter": "",
        "color": "white"
      },
      {
        "letter": "",
        "color": "white"
      },
      {
        "letter": "",
        "color": "white"
      }
    ],
    "target": {
      "letter": "C",
      "color": "black"
    },
    "gaze_direction": "right",
    "grid_position": "left",
    "target_type": "valid",
    "block": "block-1",
    "face": "d",
    "window": {
      "dimensions": [
        900,
        1440
      ],
      "isFullscreen": "BODY"
    },
    "rt": 747,
    "response_type": "key",
    "key_press": "ArrowUp",
    "response": "ArrowUp",
    "avg_frame_time": 16.667729838709715,
    "center_x": 400,
    "center_y": 225,
    "trial_type": "psychophysics",
    "trial_index": 56,
    "plugin_version": "4.0.0",
    "time_elapsed": 144606
  },
  {
    "rt": null,
    "response_type": "key",
    "key_press": null,
    "response": null,
    "avg_frame_time": 16.66600000000035,
    "center_x": 400,
    "center_y": 225,
    "trial_type": "psychophysics",
    "trial_index": 57,
    "plugin_version": "4.0.0",
    "time_elapsed": 145118
  },
  {
    "image1": "https://jatos.mindprobe.eu/publix/f1ceaa83-3d01-40ae-b283-eef067826a66/dist/40dece98c751976c5ae971fb799b576a.webp",
    "image2": "https://jatos.mindprobe.eu/publix/f1ceaa83-3d01-40ae-b283-eef067826a66/dist/539bb0274850bc5c179b9239bd4821e4.webp",
    "grid_items": [
      {
        "letter": "",
        "color": "white"
      },
      {
        "letter": "",
        "color": "white"
      },
      {
        "letter": "",
        "color": "white"
      },
      {
        "letter": "",
        "color": "white"
      },
      {
        "letter": "B",
        "color": "black"
      },
      {
        "letter": "L",
        "color": "black"
      },
      {
        "letter": "C",
        "color": "black"
      },
      {
        "letter": "T",
        "color": "black"
      }
    ],
    "target": {
      "letter": "L",
      "color": "black"
    },
    "gaze_direction": "left",
    "grid_position": "right",
    "target_type": "valid",
    "block": "block-1",
    "face": "b",
    "window": {
      "dimensions": [
        900,
        1440
      ],
      "isFullscreen": "BODY"
    },
    "rt": 803,
    "response_type": "key",
    "key_press": "ArrowDown",
    "response": "ArrowDown",
    "avg_frame_time": 16.66599999999998,
    "center_x": 400,
    "center_y": 225,
    "trial_type": "psychophysics",
    "trial_index": 58,
    "plugin_version": "4.0.0",
    "time_elapsed": 149345
  },
  {
    "rt": null,
    "response_type": "key",
    "key_press": null,
    "response": null,
    "avg_frame_time": 16.666000000000448,
    "center_x": 400,
    "center_y": 225,
    "trial_type": "psychophysics",
    "trial_index": 59,
    "plugin_version": "4.0.0",
    "time_elapsed": 149859
  },
  {
    "image1": "https://jatos.mindprobe.eu/publix/f1ceaa83-3d01-40ae-b283-eef067826a66/dist/b2b7faaf2a59bb4bdfcb862858551c57.webp",
    "image2": "https://jatos.mindprobe.eu/publix/f1ceaa83-3d01-40ae-b283-eef067826a66/dist/a2b978bad27da55c204371f73357f1d7.webp",
    "grid_items": [
      {
        "letter": "",
        "color": "white"
      },
      {
        "letter": "",
        "color": "white"
      },
      {
        "letter": "",
        "color": "white"
      },
      {
        "letter": "",
        "color": "white"
      },
      {
        "letter": "D",
        "color": "black"
      },
      {
        "letter": "M",
        "color": "black"
      },
      {
        "letter": "L",
        "color": "black"
      },
      {
        "letter": "N",
        "color": "black"
      }
    ],
    "target": {
      "letter": "N",
      "color": "black"
    },
    "gaze_direction": "left",
    "grid_position": "right",
    "target_type": "valid",
    "block": "block-1",
    "face": "a",
    "window": {
      "dimensions": [
        900,
        1440
      ],
      "isFullscreen": "BODY"
    },
    "rt": 731,
    "response_type": "key",
    "key_press": "ArrowUp",
    "response": "ArrowUp",
    "avg_frame_time": 16.667736842105192,
    "center_x": 400,
    "center_y": 225,
    "trial_type": "psychophysics",
    "trial_index": 60,
    "plugin_version": "4.0.0",
    "time_elapsed": 154008
  },
  {
    "rt": null,
    "response_type": "key",
    "key_press": null,
    "response": null,
    "avg_frame_time": 16.66600000000035,
    "center_x": 400,
    "center_y": 225,
    "trial_type": "psychophysics",
    "trial_index": 61,
    "plugin_version": "4.0.0",
    "time_elapsed": 154517
  },
  {
    "image1": "https://jatos.mindprobe.eu/publix/f1ceaa83-3d01-40ae-b283-eef067826a66/dist/b2b7faaf2a59bb4bdfcb862858551c57.webp",
    "image2": "https://jatos.mindprobe.eu/publix/f1ceaa83-3d01-40ae-b283-eef067826a66/dist/a2b978bad27da55c204371f73357f1d7.webp",
    "grid_items": [
      {
        "letter": "H",
        "color": "black"
      },
      {
        "letter": "P",
        "color": "black"
      },
      {
        "letter": "M",
        "color": "black"
      },
      {
        "letter": "K",
        "color": "black"
      },
      {
        "letter": "",
        "color": "white"
      },
      {
        "letter": "",
        "color": "white"
      },
      {
        "letter": "",
        "color": "white"
      },
      {
        "letter": "",
        "color": "white"
      }
    ],
    "target": {
      "letter": "S",
      "color": "black"
    },
    "gaze_direction": "left",
    "grid_position": "left",
    "target_type": "invalid",
    "block": "block-1",
    "face": "a",
    "window": {
      "dimensions": [
        900,
        1440
      ],
      "isFullscreen": "BODY"
    },
    "rt": 854,
    "response_type": "key",
    "key_press": "ArrowDown",
    "response": "ArrowDown",
    "avg_frame_time": 16.666000000000075,
    "center_x": 400,
    "center_y": 225,
    "trial_type": "psychophysics",
    "trial_index": 62,
    "plugin_version": "4.0.0",
    "time_elapsed": 158789
  },
  {
    "rt": null,
    "response_type": "key",
    "key_press": null,
    "response": null,
    "avg_frame_time": 16.66599999999938,
    "center_x": 400,
    "center_y": 225,
    "trial_type": "psychophysics",
    "trial_index": 63,
    "plugin_version": "4.0.0",
    "time_elapsed": 159302
  },
  {
    "image1": "https://jatos.mindprobe.eu/publix/f1ceaa83-3d01-40ae-b283-eef067826a66/dist/1d4fc1100b57f312ef6f7e81e8502a85.webp",
    "image2": "https://jatos.mindprobe.eu/publix/f1ceaa83-3d01-40ae-b283-eef067826a66/dist/f133a138299afe57854b3487f1de2960.webp",
    "grid_items": [
      {
        "letter": "",
        "color": "white"
      },
      {
        "letter": "",
        "color": "white"
      },
      {
        "letter": "",
        "color": "white"
      },
      {
        "letter": "",
        "color": "white"
      },
      {
        "letter": "H",
        "color": "black"
      },
      {
        "letter": "P",
        "color": "black"
      },
      {
        "letter": "D",
        "color": "black"
      },
      {
        "letter": "R",
        "color": "black"
      }
    ],
    "target": {
      "letter": "P",
      "color": "black"
    },
    "gaze_direction": "right",
    "grid_position": "right",
    "target_type": "valid",
    "block": "block-1",
    "face": "e",
    "window": {
      "dimensions": [
        900,
        1440
      ],
      "isFullscreen": "BODY"
    },
    "rt": 774,
    "response_type": "key",
    "key_press": "ArrowUp",
    "response": "ArrowUp",
    "avg_frame_time": 16.6677159999999,
    "center_x": 400,
    "center_y": 225,
    "trial_type": "psychophysics",
    "trial_index": 64,
    "plugin_version": "4.0.0",
    "time_elapsed": 163492
  },
  {
    "rt": null,
    "response_type": "key",
    "key_press": null,
    "response": null,
    "avg_frame_time": 16.666000000000448,
    "center_x": 400,
    "center_y": 225,
    "trial_type": "psychophysics",
    "trial_index": 65,
    "plugin_version": "4.0.0",
    "time_elapsed": 164005
  },
  {
    "image1": "https://jatos.mindprobe.eu/publix/f1ceaa83-3d01-40ae-b283-eef067826a66/dist/d429c5287be0e7ceba842a59a42841aa.webp",
    "image2": "https://jatos.mindprobe.eu/publix/f1ceaa83-3d01-40ae-b283-eef067826a66/dist/9e284198aaef8c500a1145e962e8a4d0.webp",
    "grid_items": [
      {
        "letter": "M",
        "color": "black"
      },
      {
        "letter": "N",
        "color": "black"
      },
      {
        "letter": "S",
        "color": "black"
      },
      {
        "letter": "G",
        "color": "black"
      },
      {
        "letter": "",
        "color": "white"
      },
      {
        "letter": "",
        "color": "white"
      },
      {
        "letter": "",
        "color": "white"
      },
      {
        "letter": "",
        "color": "white"
      }
    ],
    "target": {
      "letter": "S",
      "color": "black"
    },
    "gaze_direction": "right",
    "grid_position": "left",
    "target_type": "valid",
    "block": "block-1",
    "face": "f",
    "window": {
      "dimensions": [
        900,
        1440
      ],
      "isFullscreen": "BODY"
    },
    "rt": 881,
    "response_type": "key",
    "key_press": "ArrowUp",
    "response": "ArrowUp",
    "avg_frame_time": 16.666000000000054,
    "center_x": 400,
    "center_y": 225,
    "trial_type": "psychophysics",
    "trial_index": 66,
    "plugin_version": "4.0.0",
    "time_elapsed": 168303
  },
  {
    "rt": null,
    "response_type": "key",
    "key_press": null,
    "response": null,
    "avg_frame_time": 16.66599999999938,
    "center_x": 400,
    "center_y": 225,
    "trial_type": "psychophysics",
    "trial_index": 67,
    "plugin_version": "4.0.0",
    "time_elapsed": 168821
  },
  {
    "image1": "https://jatos.mindprobe.eu/publix/f1ceaa83-3d01-40ae-b283-eef067826a66/dist/36ce3cf01c34ab194e87cdb81ee9890f.webp",
    "image2": "https://jatos.mindprobe.eu/publix/f1ceaa83-3d01-40ae-b283-eef067826a66/dist/6ef25f867bb912257ed8a75458a113f3.webp",
    "grid_items": [
      {
        "letter": "S",
        "color": "black"
      },
      {
        "letter": "D",
        "color": "black"
      },
      {
        "letter": "F",
        "color": "black"
      },
      {
        "letter": "P",
        "color": "black"
      },
      {
        "letter": "",
        "color": "white"
      },
      {
        "letter": "",
        "color": "white"
      },
      {
        "letter": "",
        "color": "white"
      },
      {
        "letter": "",
        "color": "white"
      }
    ],
    "target": {
      "letter": "S",
      "color": "black"
    },
    "gaze_direction": "left",
    "grid_position": "left",
    "target_type": "valid",
    "block": "block-1",
    "face": "c",
    "window": {
      "dimensions": [
        900,
        1440
      ],
      "isFullscreen": "BODY"
    },
    "rt": 754,
    "response_type": "key",
    "key_press": "ArrowDown",
    "response": "ArrowDown",
    "avg_frame_time": 16.667718875501958,
    "center_x": 400,
    "center_y": 225,
    "trial_type": "psychophysics",
    "trial_index": 68,
    "plugin_version": "4.0.0",
    "time_elapsed": 172996
  },
  {
    "rt": null,
    "response_type": "key",
    "key_press": null,
    "response": null,
    "avg_frame_time": 16.666000000000448,
    "center_x": 400,
    "center_y": 225,
    "trial_type": "psychophysics",
    "trial_index": 69,
    "plugin_version": "4.0.0",
    "time_elapsed": 173508
  },
  {
    "image1": "https://jatos.mindprobe.eu/publix/f1ceaa83-3d01-40ae-b283-eef067826a66/dist/1d4fc1100b57f312ef6f7e81e8502a85.webp",
    "image2": "https://jatos.mindprobe.eu/publix/f1ceaa83-3d01-40ae-b283-eef067826a66/dist/7aa52bcb2291ad2c1eab0a1c309e9ebe.webp",
    "grid_items": [
      {
        "letter": "C",
        "color": "black"
      },
      {
        "letter": "B",
        "color": "black"
      },
      {
        "letter": "M",
        "color": "black"
      },
      {
        "letter": "S",
        "color": "black"
      },
      {
        "letter": "",
        "color": "white"
      },
      {
        "letter": "",
        "color": "white"
      },
      {
        "letter": "",
        "color": "white"
      },
      {
        "letter": "",
        "color": "white"
      }
    ],
    "target": {
      "letter": "B",
      "color": "black"
    },
    "gaze_direction": "left",
    "grid_position": "left",
    "target_type": "valid",
    "block": "block-1",
    "face": "e",
    "window": {
      "dimensions": [
        900,
        1440
      ],
      "isFullscreen": "BODY"
    },
    "rt": 697,
    "response_type": "key",
    "key_press": "ArrowDown",
    "response": "ArrowDown",
    "avg_frame_time": 16.666000000000043,
    "center_x": 400,
    "center_y": 225,
    "trial_type": "psychophysics",
    "trial_index": 70,
    "plugin_version": "4.0.0",
    "time_elapsed": 177630
  },
  {
    "rt": null,
    "response_type": "key",
    "key_press": null,
    "response": null,
    "avg_frame_time": 16.66599999999938,
    "center_x": 400,
    "center_y": 225,
    "trial_type": "psychophysics",
    "trial_index": 71,
    "plugin_version": "4.0.0",
    "time_elapsed": 178141
  },
  {
    "image1": "https://jatos.mindprobe.eu/publix/f1ceaa83-3d01-40ae-b283-eef067826a66/dist/0738b36f5c5284a1fbe6de5047928226.webp",
    "image2": "https://jatos.mindprobe.eu/publix/f1ceaa83-3d01-40ae-b283-eef067826a66/dist/c2c6af7a7e254bf30109d9388b53b5d8.webp",
    "grid_items": [
      {
        "letter": "",
        "color": "white"
      },
      {
        "letter": "",
        "color": "white"
      },
      {
        "letter": "",
        "color": "white"
      },
      {
        "letter": "",
        "color": "white"
      },
      {
        "letter": "D",
        "color": "black"
      },
      {
        "letter": "P",
        "color": "black"
      },
      {
        "letter": "H",
        "color": "black"
      },
      {
        "letter": "R",
        "color": "black"
      }
    ],
    "target": {
      "letter": "H",
      "color": "black"
    },
    "gaze_direction": "left",
    "grid_position": "right",
    "target_type": "valid",
    "block": "block-1",
    "face": "d",
    "window": {
      "dimensions": [
        900,
        1440
      ],
      "isFullscreen": "BODY"
    },
    "rt": 764,
    "response_type": "key",
    "key_press": "ArrowUp",
    "response": "ArrowUp",
    "avg_frame_time": 16.66772690763062,
    "center_x": 400,
    "center_y": 225,
    "trial_type": "psychophysics",
    "trial_index": 72,
    "plugin_version": "4.0.0",
    "time_elapsed": 182329
  },
  {
    "rt": null,
    "response_type": "key",
    "key_press": null,
    "response": null,
    "avg_frame_time": 16.665999999999446,
    "center_x": 400,
    "center_y": 225,
    "trial_type": "psychophysics",
    "trial_index": 73,
    "plugin_version": "4.0.0",
    "time_elapsed": 182841
  },
  {
    "image1": "https://jatos.mindprobe.eu/publix/f1ceaa83-3d01-40ae-b283-eef067826a66/dist/0738b36f5c5284a1fbe6de5047928226.webp",
    "image2": "https://jatos.mindprobe.eu/publix/f1ceaa83-3d01-40ae-b283-eef067826a66/dist/48e5157934b56d46aee0926365abe09d.webp",
    "grid_items": [
      {
        "letter": "N",
        "color": "black"
      },
      {
        "letter": "S",
        "color": "black"
      },
      {
        "letter": "B",
        "color": "black"
      },
      {
        "letter": "R",
        "color": "black"
      },
      {
        "letter": "",
        "color": "white"
      },
      {
        "letter": "",
        "color": "white"
      },
      {
        "letter": "",
        "color": "white"
      },
      {
        "letter": "",
        "color": "white"
      }
    ],
    "target": {
      "letter": "T",
      "color": "black"
    },
    "gaze_direction": "right",
    "grid_position": "left",
    "target_type": "invalid",
    "block": "block-1",
    "face": "d",
    "window": {
      "dimensions": [
        900,
        1440
      ],
      "isFullscreen": "BODY"
    },
    "rt": 709,
    "response_type": "key",
    "key_press": "ArrowDown",
    "response": "ArrowDown",
    "avg_frame_time": 16.666000000000032,
    "center_x": 400,
    "center_y": 225,
    "trial_type": "psychophysics",
    "trial_index": 74,
    "plugin_version": "4.0.0",
    "time_elapsed": 186979
  },
  {
    "rt": null,
    "response_type": "key",
    "key_press": null,
    "response": null,
    "avg_frame_time": 16.666000000000448,
    "center_x": 400,
    "center_y": 225,
    "trial_type": "psychophysics",
    "trial_index": 75,
    "plugin_version": "4.0.0",
    "time_elapsed": 187492
  },
  {
    "image1": "https://jatos.mindprobe.eu/publix/f1ceaa83-3d01-40ae-b283-eef067826a66/dist/40dece98c751976c5ae971fb799b576a.webp",
    "image2": "https://jatos.mindprobe.eu/publix/f1ceaa83-3d01-40ae-b283-eef067826a66/dist/539bb0274850bc5c179b9239bd4821e4.webp",
    "grid_items": [
      {
        "letter": "H",
        "color": "black"
      },
      {
        "letter": "P",
        "color": "black"
      },
      {
        "letter": "T",
        "color": "black"
      },
      {
        "letter": "N",
        "color": "black"
      },
      {
        "letter": "",
        "color": "white"
      },
      {
        "letter": "",
        "color": "white"
      },
      {
        "letter": "",
        "color": "white"
      },
      {
        "letter": "",
        "color": "white"
      }
    ],
    "target": {
      "letter": "T",
      "color": "black"
    },
    "gaze_direction": "left",
    "grid_position": "left",
    "target_type": "valid",
    "block": "block-1",
    "face": "b",
    "window": {
      "dimensions": [
        900,
        1440
      ],
      "isFullscreen": "BODY"
    },
    "rt": 640,
    "response_type": "key",
    "key_press": "ArrowUp",
    "response": "ArrowUp",
    "avg_frame_time": 16.665999999999965,
    "center_x": 400,
    "center_y": 225,
    "trial_type": "psychophysics",
    "trial_index": 76,
    "plugin_version": "4.0.0",
    "time_elapsed": 191547
  },
  {
    "rt": null,
    "response_type": "key",
    "key_press": null,
    "response": null,
    "avg_frame_time": 16.66600000000035,
    "center_x": 400,
    "center_y": 225,
    "trial_type": "psychophysics",
    "trial_index": 77,
    "plugin_version": "4.0.0",
    "time_elapsed": 192056
  },
  {
    "image1": "https://jatos.mindprobe.eu/publix/f1ceaa83-3d01-40ae-b283-eef067826a66/dist/36ce3cf01c34ab194e87cdb81ee9890f.webp",
    "image2": "https://jatos.mindprobe.eu/publix/f1ceaa83-3d01-40ae-b283-eef067826a66/dist/6ef25f867bb912257ed8a75458a113f3.webp",
    "grid_items": [
      {
        "letter": "",
        "color": "white"
      },
      {
        "letter": "",
        "color": "white"
      },
      {
        "letter": "",
        "color": "white"
      },
      {
        "letter": "",
        "color": "white"
      },
      {
        "letter": "K",
        "color": "black"
      },
      {
        "letter": "L",
        "color": "black"
      },
      {
        "letter": "B",
        "color": "black"
      },
      {
        "letter": "S",
        "color": "black"
      }
    ],
    "target": {
      "letter": "K",
      "color": "black"
    },
    "gaze_direction": "left",
    "grid_position": "right",
    "target_type": "valid",
    "block": "block-1",
    "face": "c",
    "window": {
      "dimensions": [
        900,
        1440
      ],
      "isFullscreen": "BODY"
    },
    "rt": 857,
    "response_type": "key",
    "key_press": "ArrowUp",
    "response": "ArrowUp",
    "avg_frame_time": 16.667678431372554,
    "center_x": 400,
    "center_y": 225,
    "trial_type": "psychophysics",
    "trial_index": 78,
    "plugin_version": "4.0.0",
    "time_elapsed": 196326
  },
  {
    "rt": null,
    "response_type": "key",
    "key_press": null,
    "response": null,
    "avg_frame_time": 16.666000000000448,
    "center_x": 400,
    "center_y": 225,
    "trial_type": "psychophysics",
    "trial_index": 79,
    "plugin_version": "4.0.0",
    "time_elapsed": 196837
  },
  {
    "image1": "https://jatos.mindprobe.eu/publix/f1ceaa83-3d01-40ae-b283-eef067826a66/dist/b2b7faaf2a59bb4bdfcb862858551c57.webp",
    "image2": "https://jatos.mindprobe.eu/publix/f1ceaa83-3d01-40ae-b283-eef067826a66/dist/a2b978bad27da55c204371f73357f1d7.webp",
    "grid_items": [
      {
        "letter": "",
        "color": "white"
      },
      {
        "letter": "",
        "color": "white"
      },
      {
        "letter": "",
        "color": "white"
      },
      {
        "letter": "",
        "color": "white"
      },
      {
        "letter": "P",
        "color": "black"
      },
      {
        "letter": "R",
        "color": "black"
      },
      {
        "letter": "F",
        "color": "black"
      },
      {
        "letter": "L",
        "color": "black"
      }
    ],
    "target": {
      "letter": "G",
      "color": "black"
    },
    "gaze_direction": "left",
    "grid_position": "right",
    "target_type": "invalid",
    "block": "block-1",
    "face": "a",
    "window": {
      "dimensions": [
        900,
        1440
      ],
      "isFullscreen": "BODY"
    },
    "rt": 812,
    "response_type": "key",
    "key_press": "ArrowDown",
    "response": "ArrowDown",
    "avg_frame_time": 16.66599999999998,
    "center_x": 400,
    "center_y": 225,
    "trial_type": "psychophysics",
    "trial_index": 80,
    "plugin_version": "4.0.0",
    "time_elapsed": 201065
  },
  {
    "rt": null,
    "response_type": "key",
    "key_press": null,
    "response": null,
    "avg_frame_time": 16.666000000000448,
    "center_x": 400,
    "center_y": 225,
    "trial_type": "psychophysics",
    "trial_index": 81,
    "plugin_version": "4.0.0",
    "time_elapsed": 201575
  },
  {
    "image1": "https://jatos.mindprobe.eu/publix/f1ceaa83-3d01-40ae-b283-eef067826a66/dist/40dece98c751976c5ae971fb799b576a.webp",
    "image2": "https://jatos.mindprobe.eu/publix/f1ceaa83-3d01-40ae-b283-eef067826a66/dist/539bb0274850bc5c179b9239bd4821e4.webp",
    "grid_items": [
      {
        "letter": "",
        "color": "white"
      },
      {
        "letter": "",
        "color": "white"
      },
      {
        "letter": "",
        "color": "white"
      },
      {
        "letter": "",
        "color": "white"
      },
      {
        "letter": "S",
        "color": "black"
      },
      {
        "letter": "D",
        "color": "black"
      },
      {
        "letter": "P",
        "color": "black"
      },
      {
        "letter": "L",
        "color": "black"
      }
    ],
    "target": {
      "letter": "K",
      "color": "black"
    },
    "gaze_direction": "left",
    "grid_position": "right",
    "target_type": "invalid",
    "block": "block-1",
    "face": "b",
    "window": {
      "dimensions": [
        900,
        1440
      ],
      "isFullscreen": "BODY"
    },
    "rt": 1008,
    "response_type": "key",
    "key_press": "ArrowDown",
    "response": "ArrowDown",
    "avg_frame_time": 16.667624999999987,
    "center_x": 400,
    "center_y": 225,
    "trial_type": "psychophysics",
    "trial_index": 82,
    "plugin_version": "4.0.0",
    "time_elapsed": 206005
  },
  {
    "rt": null,
    "response_type": "key",
    "key_press": null,
    "response": null,
    "avg_frame_time": 16.66600000000035,
    "center_x": 400,
    "center_y": 225,
    "trial_type": "psychophysics",
    "trial_index": 83,
    "plugin_version": "4.0.0",
    "time_elapsed": 206518
  },
  {
    "image1": "https://jatos.mindprobe.eu/publix/f1ceaa83-3d01-40ae-b283-eef067826a66/dist/36ce3cf01c34ab194e87cdb81ee9890f.webp",
    "image2": "https://jatos.mindprobe.eu/publix/f1ceaa83-3d01-40ae-b283-eef067826a66/dist/6ef25f867bb912257ed8a75458a113f3.webp",
    "grid_items": [
      {
        "letter": "N",
        "color": "black"
      },
      {
        "letter": "C",
        "color": "black"
      },
      {
        "letter": "H",
        "color": "black"
      },
      {
        "letter": "M",
        "color": "black"
      },
      {
        "letter": "",
        "color": "white"
      },
      {
        "letter": "",
        "color": "white"
      },
      {
        "letter": "",
        "color": "white"
      },
      {
        "letter": "",
        "color": "white"
      }
    ],
    "target": {
      "letter": "D",
      "color": "black"
    },
    "gaze_direction": "left",
    "grid_position": "left",
    "target_type": "invalid",
    "block": "block-1",
    "face": "c",
    "window": {
      "dimensions": [
        900,
        1440
      ],
      "isFullscreen": "BODY"
    },
    "rt": 739,
    "response_type": "key",
    "key_press": "ArrowDown",
    "response": "ArrowDown",
    "avg_frame_time": 16.666000000000032,
    "center_x": 400,
    "center_y": 225,
    "trial_type": "psychophysics",
    "trial_index": 84,
    "plugin_version": "4.0.0",
    "time_elapsed": 210672
  },
  {
    "rt": null,
    "response_type": "key",
    "key_press": null,
    "response": null,
    "avg_frame_time": 16.66599999999938,
    "center_x": 400,
    "center_y": 225,
    "trial_type": "psychophysics",
    "trial_index": 85,
    "plugin_version": "4.0.0",
    "time_elapsed": 211181
  },
  {
    "image1": "https://jatos.mindprobe.eu/publix/f1ceaa83-3d01-40ae-b283-eef067826a66/dist/b2b7faaf2a59bb4bdfcb862858551c57.webp",
    "image2": "https://jatos.mindprobe.eu/publix/f1ceaa83-3d01-40ae-b283-eef067826a66/dist/afa6e6b610b3cab6c6b449a4e2dd4d02.webp",
    "grid_items": [
      {
        "letter": "D",
        "color": "black"
      },
      {
        "letter": "M",
        "color": "black"
      },
      {
        "letter": "R",
        "color": "black"
      },
      {
        "letter": "L",
        "color": "black"
      },
      {
        "letter": "",
        "color": "white"
      },
      {
        "letter": "",
        "color": "white"
      },
      {
        "letter": "",
        "color": "white"
      },
      {
        "letter": "",
        "color": "white"
      }
    ],
    "target": {
      "letter": "D",
      "color": "black"
    },
    "gaze_direction": "right",
    "grid_position": "left",
    "target_type": "valid",
    "block": "block-1",
    "face": "a",
    "window": {
      "dimensions": [
        900,
        1440
      ],
      "isFullscreen": "BODY"
    },
    "rt": 736,
    "response_type": "key",
    "key_press": "ArrowUp",
    "response": "ArrowUp",
    "avg_frame_time": 16.667729838709715,
    "center_x": 400,
    "center_y": 225,
    "trial_type": "psychophysics",
    "trial_index": 86,
    "plugin_version": "4.0.0",
    "time_elapsed": 215344
  },
  {
    "rt": null,
    "response_type": "key",
    "key_press": null,
    "response": null,
    "avg_frame_time": 16.666000000000448,
    "center_x": 400,
    "center_y": 225,
    "trial_type": "psychophysics",
    "trial_index": 87,
    "plugin_version": "4.0.0",
    "time_elapsed": 215854
  },
  {
    "image1": "https://jatos.mindprobe.eu/publix/f1ceaa83-3d01-40ae-b283-eef067826a66/dist/b2b7faaf2a59bb4bdfcb862858551c57.webp",
    "image2": "https://jatos.mindprobe.eu/publix/f1ceaa83-3d01-40ae-b283-eef067826a66/dist/a2b978bad27da55c204371f73357f1d7.webp",
    "grid_items": [
      {
        "letter": "S",
        "color": "black"
      },
      {
        "letter": "L",
        "color": "black"
      },
      {
        "letter": "B",
        "color": "black"
      },
      {
        "letter": "P",
        "color": "black"
      },
      {
        "letter": "",
        "color": "white"
      },
      {
        "letter": "",
        "color": "white"
      },
      {
        "letter": "",
        "color": "white"
      },
      {
        "letter": "",
        "color": "white"
      }
    ],
    "target": {
      "letter": "L",
      "color": "black"
    },
    "gaze_direction": "left",
    "grid_position": "left",
    "target_type": "valid",
    "block": "block-1",
    "face": "a",
    "window": {
      "dimensions": [
        900,
        1440
      ],
      "isFullscreen": "BODY"
    },
    "rt": 777,
    "response_type": "key",
    "key_press": "ArrowDown",
    "response": "ArrowDown",
    "avg_frame_time": 16.66599999999999,
    "center_x": 400,
    "center_y": 225,
    "trial_type": "psychophysics",
    "trial_index": 88,
    "plugin_version": "4.0.0",
    "time_elapsed": 220063
  },
  {
    "rt": null,
    "response_type": "key",
    "key_press": null,
    "response": null,
    "avg_frame_time": 16.666000000000448,
    "center_x": 400,
    "center_y": 225,
    "trial_type": "psychophysics",
    "trial_index": 89,
    "plugin_version": "4.0.0",
    "time_elapsed": 220574
  },
  {
    "image1": "https://jatos.mindprobe.eu/publix/f1ceaa83-3d01-40ae-b283-eef067826a66/dist/0738b36f5c5284a1fbe6de5047928226.webp",
    "image2": "https://jatos.mindprobe.eu/publix/f1ceaa83-3d01-40ae-b283-eef067826a66/dist/c2c6af7a7e254bf30109d9388b53b5d8.webp",
    "grid_items": [
      {
        "letter": "L",
        "color": "black"
      },
      {
        "letter": "P",
        "color": "black"
      },
      {
        "letter": "B",
        "color": "black"
      },
      {
        "letter": "T",
        "color": "black"
      },
      {
        "letter": "",
        "color": "white"
      },
      {
        "letter": "",
        "color": "white"
      },
      {
        "letter": "",
        "color": "white"
      },
      {
        "letter": "",
        "color": "white"
      }
    ],
    "target": {
      "letter": "K",
      "color": "black"
    },
    "gaze_direction": "left",
    "grid_position": "left",
    "target_type": "invalid",
    "block": "block-1",
    "face": "d",
    "window": {
      "dimensions": [
        900,
        1440
      ],
      "isFullscreen": "BODY"
    },
    "rt": 708,
    "response_type": "key",
    "key_press": "ArrowDown",
    "response": "ArrowDown",
    "avg_frame_time": 16.667736842105192,
    "center_x": 400,
    "center_y": 225,
    "trial_type": "psychophysics",
    "trial_index": 90,
    "plugin_version": "4.0.0",
    "time_elapsed": 224714
  },
  {
    "rt": null,
    "response_type": "key",
    "key_press": null,
    "response": null,
    "avg_frame_time": 16.665999999999446,
    "center_x": 400,
    "center_y": 225,
    "trial_type": "psychophysics",
    "trial_index": 91,
    "plugin_version": "4.0.0",
    "time_elapsed": 225222
  },
  {
    "image1": "https://jatos.mindprobe.eu/publix/f1ceaa83-3d01-40ae-b283-eef067826a66/dist/40dece98c751976c5ae971fb799b576a.webp",
    "image2": "https://jatos.mindprobe.eu/publix/f1ceaa83-3d01-40ae-b283-eef067826a66/dist/a0953907ed0c4f557cc32072c240bdb4.webp",
    "grid_items": [
      {
        "letter": "",
        "color": "white"
      },
      {
        "letter": "",
        "color": "white"
      },
      {
        "letter": "",
        "color": "white"
      },
      {
        "letter": "",
        "color": "white"
      },
      {
        "letter": "R",
        "color": "black"
      },
      {
        "letter": "K",
        "color": "black"
      },
      {
        "letter": "G",
        "color": "black"
      },
      {
        "letter": "L",
        "color": "black"
      }
    ],
    "target": {
      "letter": "G",
      "color": "black"
    },
    "gaze_direction": "right",
    "grid_position": "right",
    "target_type": "valid",
    "block": "block-1",
    "face": "b",
    "window": {
      "dimensions": [
        900,
        1440
      ],
      "isFullscreen": "BODY"
    },
    "rt": 926,
    "response_type": "key",
    "key_press": "ArrowUp",
    "response": "ArrowUp",
    "avg_frame_time": 16.666000000000015,
    "center_x": 400,
    "center_y": 225,
    "trial_type": "psychophysics",
    "trial_index": 92,
    "plugin_version": "4.0.0",
    "time_elapsed": 229579
  },
  {
    "rt": null,
    "response_type": "key",
    "key_press": null,
    "response": null,
    "avg_frame_time": 16.666000000000448,
    "center_x": 400,
    "center_y": 225,
    "trial_type": "psychophysics",
    "trial_index": 93,
    "plugin_version": "4.0.0",
    "time_elapsed": 230088
  },
  {
    "image1": "https://jatos.mindprobe.eu/publix/f1ceaa83-3d01-40ae-b283-eef067826a66/dist/d429c5287be0e7ceba842a59a42841aa.webp",
    "image2": "https://jatos.mindprobe.eu/publix/f1ceaa83-3d01-40ae-b283-eef067826a66/dist/9e284198aaef8c500a1145e962e8a4d0.webp",
    "grid_items": [
      {
        "letter": "",
        "color": "white"
      },
      {
        "letter": "",
        "color": "white"
      },
      {
        "letter": "",
        "color": "white"
      },
      {
        "letter": "",
        "color": "white"
      },
      {
        "letter": "G",
        "color": "black"
      },
      {
        "letter": "M",
        "color": "black"
      },
      {
        "letter": "K",
        "color": "black"
      },
      {
        "letter": "L",
        "color": "black"
      }
    ],
    "target": {
      "letter": "L",
      "color": "black"
    },
    "gaze_direction": "right",
    "grid_position": "right",
    "target_type": "valid",
    "block": "block-1",
    "face": "f",
    "window": {
      "dimensions": [
        900,
        1440
      ],
      "isFullscreen": "BODY"
    },
    "rt": 805,
    "response_type": "key",
    "key_press": "ArrowUp",
    "response": "ArrowUp",
    "avg_frame_time": 16.667702380952374,
    "center_x": 400,
    "center_y": 225,
    "trial_type": "psychophysics",
    "trial_index": 94,
    "plugin_version": "4.0.0",
    "time_elapsed": 234313
  },
  {
    "rt": null,
    "response_type": "key",
    "key_press": null,
    "response": null,
    "avg_frame_time": 16.666000000000448,
    "center_x": 400,
    "center_y": 225,
    "trial_type": "psychophysics",
    "trial_index": 95,
    "plugin_version": "4.0.0",
    "time_elapsed": 234825
  },
  {
    "image1": "https://jatos.mindprobe.eu/publix/f1ceaa83-3d01-40ae-b283-eef067826a66/dist/40dece98c751976c5ae971fb799b576a.webp",
    "image2": "https://jatos.mindprobe.eu/publix/f1ceaa83-3d01-40ae-b283-eef067826a66/dist/539bb0274850bc5c179b9239bd4821e4.webp",
    "grid_items": [
      {
        "letter": "L",
        "color": "black"
      },
      {
        "letter": "H",
        "color": "black"
      },
      {
        "letter": "P",
        "color": "black"
      },
      {
        "letter": "D",
        "color": "black"
      },
      {
        "letter": "",
        "color": "white"
      },
      {
        "letter": "",
        "color": "white"
      },
      {
        "letter": "",
        "color": "white"
      },
      {
        "letter": "",
        "color": "white"
      }
    ],
    "target": {
      "letter": "R",
      "color": "black"
    },
    "gaze_direction": "left",
    "grid_position": "left",
    "target_type": "invalid",
    "block": "block-1",
    "face": "b",
    "window": {
      "dimensions": [
        900,
        1440
      ],
      "isFullscreen": "BODY"
    },
    "rt": 678,
    "response_type": "key",
    "key_press": "ArrowDown",
    "response": "ArrowDown",
    "avg_frame_time": 16.665999999999944,
    "center_x": 400,
    "center_y": 225,
    "trial_type": "psychophysics",
    "trial_index": 96,
    "plugin_version": "4.0.0",
    "time_elapsed": 238919
  },
  {
    "rt": null,
    "response_type": "key",
    "key_press": null,
    "response": null,
    "avg_frame_time": 16.66600000000035,
    "center_x": 400,
    "center_y": 225,
    "trial_type": "psychophysics",
    "trial_index": 97,
    "plugin_version": "4.0.0",
    "time_elapsed": 239430
  },
  {
    "image1": "https://jatos.mindprobe.eu/publix/f1ceaa83-3d01-40ae-b283-eef067826a66/dist/36ce3cf01c34ab194e87cdb81ee9890f.webp",
    "image2": "https://jatos.mindprobe.eu/publix/f1ceaa83-3d01-40ae-b283-eef067826a66/dist/7abc9556bd3afc91e874c19e0dfb4358.webp",
    "grid_items": [
      {
        "letter": "N",
        "color": "black"
      },
      {
        "letter": "C",
        "color": "black"
      },
      {
        "letter": "D",
        "color": "black"
      },
      {
        "letter": "T",
        "color": "black"
      },
      {
        "letter": "",
        "color": "white"
      },
      {
        "letter": "",
        "color": "white"
      },
      {
        "letter": "",
        "color": "white"
      },
      {
        "letter": "",
        "color": "white"
      }
    ],
    "target": {
      "letter": "H",
      "color": "black"
    },
    "gaze_direction": "right",
    "grid_position": "left",
    "target_type": "invalid",
    "block": "block-1",
    "face": "c",
    "window": {
      "dimensions": [
        900,
        1440
      ],
      "isFullscreen": "BODY"
    },
    "rt": 1107,
    "response_type": "key",
    "key_press": "ArrowUp",
    "response": "ArrowUp",
    "avg_frame_time": 16.66758888888893,
    "center_x": 400,
    "center_y": 225,
    "trial_type": "psychophysics",
    "trial_index": 98,
    "plugin_version": "4.0.0",
    "time_elapsed": 243966
  },
  {
    "rt": null,
    "response_type": "key",
    "key_press": null,
    "response": null,
    "avg_frame_time": 16.666000000000448,
    "center_x": 400,
    "center_y": 225,
    "trial_type": "psychophysics",
    "trial_index": 99,
    "plugin_version": "4.0.0",
    "time_elapsed": 244476
  },
  {
    "image1": "https://jatos.mindprobe.eu/publix/f1ceaa83-3d01-40ae-b283-eef067826a66/dist/b2b7faaf2a59bb4bdfcb862858551c57.webp",
    "image2": "https://jatos.mindprobe.eu/publix/f1ceaa83-3d01-40ae-b283-eef067826a66/dist/afa6e6b610b3cab6c6b449a4e2dd4d02.webp",
    "grid_items": [
      {
        "letter": "",
        "color": "white"
      },
      {
        "letter": "",
        "color": "white"
      },
      {
        "letter": "",
        "color": "white"
      },
      {
        "letter": "",
        "color": "white"
      },
      {
        "letter": "R",
        "color": "black"
      },
      {
        "letter": "P",
        "color": "black"
      },
      {
        "letter": "K",
        "color": "black"
      },
      {
        "letter": "L",
        "color": "black"
      }
    ],
    "target": {
      "letter": "K",
      "color": "black"
    },
    "gaze_direction": "right",
    "grid_position": "right",
    "target_type": "valid",
    "block": "block-1",
    "face": "a",
    "window": {
      "dimensions": [
        900,
        1440
      ],
      "isFullscreen": "BODY"
    },
    "rt": 982,
    "response_type": "key",
    "key_press": "ArrowUp",
    "response": "ArrowUp",
    "avg_frame_time": 16.665999999999983,
    "center_x": 400,
    "center_y": 225,
    "trial_type": "psychophysics",
    "trial_index": 100,
    "plugin_version": "4.0.0",
    "time_elapsed": 248884
  },
  {
    "rt": null,
    "response_type": "key",
    "key_press": null,
    "response": null,
    "avg_frame_time": 16.66600000000035,
    "center_x": 400,
    "center_y": 225,
    "trial_type": "psychophysics",
    "trial_index": 101,
    "plugin_version": "4.0.0",
    "time_elapsed": 249397
  },
  {
    "image1": "https://jatos.mindprobe.eu/publix/f1ceaa83-3d01-40ae-b283-eef067826a66/dist/d429c5287be0e7ceba842a59a42841aa.webp",
    "image2": "https://jatos.mindprobe.eu/publix/f1ceaa83-3d01-40ae-b283-eef067826a66/dist/9e284198aaef8c500a1145e962e8a4d0.webp",
    "grid_items": [
      {
        "letter": "",
        "color": "white"
      },
      {
        "letter": "",
        "color": "white"
      },
      {
        "letter": "",
        "color": "white"
      },
      {
        "letter": "",
        "color": "white"
      },
      {
        "letter": "L",
        "color": "black"
      },
      {
        "letter": "R",
        "color": "black"
      },
      {
        "letter": "T",
        "color": "black"
      },
      {
        "letter": "M",
        "color": "black"
      }
    ],
    "target": {
      "letter": "C",
      "color": "black"
    },
    "gaze_direction": "right",
    "grid_position": "right",
    "target_type": "invalid",
    "block": "block-1",
    "face": "f",
    "window": {
      "dimensions": [
        900,
        1440
      ],
      "isFullscreen": "BODY"
    },
    "rt": 762,
    "response_type": "key",
    "key_press": "ArrowDown",
    "response": "ArrowDown",
    "avg_frame_time": 16.66772289156629,
    "center_x": 400,
    "center_y": 225,
    "trial_type": "psychophysics",
    "trial_index": 102,
    "plugin_version": "4.0.0",
    "time_elapsed": 253583
  },
  {
    "rt": null,
    "response_type": "key",
    "key_press": null,
    "response": null,
    "avg_frame_time": 16.66599999999938,
    "center_x": 400,
    "center_y": 225,
    "trial_type": "psychophysics",
    "trial_index": 103,
    "plugin_version": "4.0.0",
    "time_elapsed": 254093
  },
  {
    "image1": "https://jatos.mindprobe.eu/publix/f1ceaa83-3d01-40ae-b283-eef067826a66/dist/1d4fc1100b57f312ef6f7e81e8502a85.webp",
    "image2": "https://jatos.mindprobe.eu/publix/f1ceaa83-3d01-40ae-b283-eef067826a66/dist/f133a138299afe57854b3487f1de2960.webp",
    "grid_items": [
      {
        "letter": "",
        "color": "white"
      },
      {
        "letter": "",
        "color": "white"
      },
      {
        "letter": "",
        "color": "white"
      },
      {
        "letter": "",
        "color": "white"
      },
      {
        "letter": "M",
        "color": "black"
      },
      {
        "letter": "C",
        "color": "black"
      },
      {
        "letter": "F",
        "color": "black"
      },
      {
        "letter": "N",
        "color": "black"
      }
    ],
    "target": {
      "letter": "R",
      "color": "black"
    },
    "gaze_direction": "right",
    "grid_position": "right",
    "target_type": "invalid",
    "block": "block-1",
    "face": "e",
    "window": {
      "dimensions": [
        900,
        1440
      ],
      "isFullscreen": "BODY"
    },
    "rt": 727,
    "response_type": "key",
    "key_press": "ArrowDown",
    "response": "ArrowDown",
    "avg_frame_time": 16.666000000000032,
    "center_x": 400,
    "center_y": 225,
    "trial_type": "psychophysics",
    "trial_index": 104,
    "plugin_version": "4.0.0",
    "time_elapsed": 258244
  },
  {
    "rt": null,
    "response_type": "key",
    "key_press": null,
    "response": null,
    "avg_frame_time": 16.666000000000448,
    "center_x": 400,
    "center_y": 225,
    "trial_type": "psychophysics",
    "trial_index": 105,
    "plugin_version": "4.0.0",
    "time_elapsed": 258757
  },
  {
    "image1": "https://jatos.mindprobe.eu/publix/f1ceaa83-3d01-40ae-b283-eef067826a66/dist/0738b36f5c5284a1fbe6de5047928226.webp",
    "image2": "https://jatos.mindprobe.eu/publix/f1ceaa83-3d01-40ae-b283-eef067826a66/dist/48e5157934b56d46aee0926365abe09d.webp",
    "grid_items": [
      {
        "letter": "",
        "color": "white"
      },
      {
        "letter": "",
        "color": "white"
      },
      {
        "letter": "",
        "color": "white"
      },
      {
        "letter": "",
        "color": "white"
      },
      {
        "letter": "T",
        "color": "black"
      },
      {
        "letter": "L",
        "color": "black"
      },
      {
        "letter": "K",
        "color": "black"
      },
      {
        "letter": "S",
        "color": "black"
      }
    ],
    "target": {
      "letter": "G",
      "color": "black"
    },
    "gaze_direction": "right",
    "grid_position": "right",
    "target_type": "invalid",
    "block": "block-1",
    "face": "d",
    "window": {
      "dimensions": [
        900,
        1440
      ],
      "isFullscreen": "BODY"
    },
    "rt": 702,
    "response_type": "key",
    "key_press": "ArrowDown",
    "response": "ArrowDown",
    "avg_frame_time": 16.667739837398475,
    "center_x": 400,
    "center_y": 225,
    "trial_type": "psychophysics",
    "trial_index": 106,
    "plugin_version": "4.0.0",
    "time_elapsed": 262878
  },
  {
    "rt": null,
    "response_type": "key",
    "key_press": null,
    "response": null,
    "avg_frame_time": 16.666000000000448,
    "center_x": 400,
    "center_y": 225,
    "trial_type": "psychophysics",
    "trial_index": 107,
    "plugin_version": "4.0.0",
    "time_elapsed": 263390
  },
  {
    "image1": "https://jatos.mindprobe.eu/publix/f1ceaa83-3d01-40ae-b283-eef067826a66/dist/d429c5287be0e7ceba842a59a42841aa.webp",
    "image2": "https://jatos.mindprobe.eu/publix/f1ceaa83-3d01-40ae-b283-eef067826a66/dist/7c19086664cedcdfc2bed264c3b04bfa.webp",
    "grid_items": [
      {
        "letter": "B",
        "color": "black"
      },
      {
        "letter": "D",
        "color": "black"
      },
      {
        "letter": "T",
        "color": "black"
      },
      {
        "letter": "M",
        "color": "black"
      },
      {
        "letter": "",
        "color": "white"
      },
      {
        "letter": "",
        "color": "white"
      },
      {
        "letter": "",
        "color": "white"
      },
      {
        "letter": "",
        "color": "white"
      }
    ],
    "target": {
      "letter": "D",
      "color": "black"
    },
    "gaze_direction": "left",
    "grid_position": "left",
    "target_type": "valid",
    "block": "block-1",
    "face": "f",
    "window": {
      "dimensions": [
        900,
        1440
      ],
      "isFullscreen": "BODY"
    },
    "rt": 665,
    "response_type": "key",
    "key_press": "ArrowDown",
    "response": "ArrowDown",
    "avg_frame_time": 16.666000000000064,
    "center_x": 400,
    "center_y": 225,
    "trial_type": "psychophysics",
    "trial_index": 108,
    "plugin_version": "4.0.0",
    "time_elapsed": 267486
  },
  {
    "rt": null,
    "response_type": "key",
    "key_press": null,
    "response": null,
    "avg_frame_time": 16.66600000000132,
    "center_x": 400,
    "center_y": 225,
    "trial_type": "psychophysics",
    "trial_index": 109,
    "plugin_version": "4.0.0",
    "time_elapsed": 268005
  },
  {
    "image1": "https://jatos.mindprobe.eu/publix/f1ceaa83-3d01-40ae-b283-eef067826a66/dist/1d4fc1100b57f312ef6f7e81e8502a85.webp",
    "image2": "https://jatos.mindprobe.eu/publix/f1ceaa83-3d01-40ae-b283-eef067826a66/dist/7aa52bcb2291ad2c1eab0a1c309e9ebe.webp",
    "grid_items": [
      {
        "letter": "",
        "color": "white"
      },
      {
        "letter": "",
        "color": "white"
      },
      {
        "letter": "",
        "color": "white"
      },
      {
        "letter": "",
        "color": "white"
      },
      {
        "letter": "M",
        "color": "black"
      },
      {
        "letter": "B",
        "color": "black"
      },
      {
        "letter": "P",
        "color": "black"
      },
      {
        "letter": "L",
        "color": "black"
      }
    ],
    "target": {
      "letter": "R",
      "color": "black"
    },
    "gaze_direction": "left",
    "grid_position": "right",
    "target_type": "invalid",
    "block": "block-1",
    "face": "e",
    "window": {
      "dimensions": [
        900,
        1440
      ],
      "isFullscreen": "BODY"
    },
    "rt": 882,
    "response_type": "key",
    "key_press": "ArrowUp",
    "response": "ArrowUp",
    "avg_frame_time": 16.665999999999816,
    "center_x": 400,
    "center_y": 225,
    "trial_type": "psychophysics",
    "trial_index": 110,
    "plugin_version": "4.0.0",
    "time_elapsed": 272308
  },
  {
    "rt": null,
    "response_type": "key",
    "key_press": null,
    "response": null,
    "avg_frame_time": 16.680793103448853,
    "center_x": 400,
    "center_y": 225,
    "trial_type": "psychophysics",
    "trial_index": 111,
    "plugin_version": "4.0.0",
    "time_elapsed": 272822
  },
  {
    "image1": "https://jatos.mindprobe.eu/publix/f1ceaa83-3d01-40ae-b283-eef067826a66/dist/0738b36f5c5284a1fbe6de5047928226.webp",
    "image2": "https://jatos.mindprobe.eu/publix/f1ceaa83-3d01-40ae-b283-eef067826a66/dist/c2c6af7a7e254bf30109d9388b53b5d8.webp",
    "grid_items": [
      {
        "letter": "",
        "color": "white"
      },
      {
        "letter": "",
        "color": "white"
      },
      {
        "letter": "",
        "color": "white"
      },
      {
        "letter": "",
        "color": "white"
      },
      {
        "letter": "R",
        "color": "black"
      },
      {
        "letter": "M",
        "color": "black"
      },
      {
        "letter": "P",
        "color": "black"
      },
      {
        "letter": "L",
        "color": "black"
      }
    ],
    "target": {
      "letter": "G",
      "color": "black"
    },
    "gaze_direction": "left",
    "grid_position": "right",
    "target_type": "invalid",
    "block": "block-1",
    "face": "d",
    "window": {
      "dimensions": [
        900,
        1440
      ],
      "isFullscreen": "BODY"
    },
    "rt": 689,
    "response_type": "key",
    "key_press": "ArrowDown",
    "response": "ArrowDown",
    "avg_frame_time": 16.665999999999933,
    "center_x": 400,
    "center_y": 225,
    "trial_type": "psychophysics",
    "trial_index": 112,
    "plugin_version": "4.0.0",
    "time_elapsed": 276932
  },
  {
    "rt": null,
    "response_type": "key",
    "key_press": null,
    "response": null,
    "avg_frame_time": 16.66599999999844,
    "center_x": 400,
    "center_y": 225,
    "trial_type": "psychophysics",
    "trial_index": 113,
    "plugin_version": "4.0.0",
    "time_elapsed": 277442
  },
  {
    "image1": "https://jatos.mindprobe.eu/publix/f1ceaa83-3d01-40ae-b283-eef067826a66/dist/1d4fc1100b57f312ef6f7e81e8502a85.webp",
    "image2": "https://jatos.mindprobe.eu/publix/f1ceaa83-3d01-40ae-b283-eef067826a66/dist/7aa52bcb2291ad2c1eab0a1c309e9ebe.webp",
    "grid_items": [
      {
        "letter": "",
        "color": "white"
      },
      {
        "letter": "",
        "color": "white"
      },
      {
        "letter": "",
        "color": "white"
      },
      {
        "letter": "",
        "color": "white"
      },
      {
        "letter": "T",
        "color": "black"
      },
      {
        "letter": "C",
        "color": "black"
      },
      {
        "letter": "D",
        "color": "black"
      },
      {
        "letter": "K",
        "color": "black"
      }
    ],
    "target": {
      "letter": "T",
      "color": "black"
    },
    "gaze_direction": "left",
    "grid_position": "right",
    "target_type": "valid",
    "block": "block-1",
    "face": "e",
    "window": {
      "dimensions": [
        900,
        1440
      ],
      "isFullscreen": "BODY"
    },
    "rt": 1079,
    "response_type": "key",
    "key_press": "ArrowUp",
    "response": "ArrowUp",
    "avg_frame_time": 16.666000000000142,
    "center_x": 400,
    "center_y": 225,
    "trial_type": "psychophysics",
    "trial_index": 114,
    "plugin_version": "4.0.0",
    "time_elapsed": 281949
  },
  {
    "rt": null,
    "response_type": "key",
    "key_press": null,
    "response": null,
    "avg_frame_time": 16.66600000000132,
    "center_x": 400,
    "center_y": 225,
    "trial_type": "psychophysics",
    "trial_index": 115,
    "plugin_version": "4.0.0",
    "time_elapsed": 282461
  },
  {
    "image1": "https://jatos.mindprobe.eu/publix/f1ceaa83-3d01-40ae-b283-eef067826a66/dist/d429c5287be0e7ceba842a59a42841aa.webp",
    "image2": "https://jatos.mindprobe.eu/publix/f1ceaa83-3d01-40ae-b283-eef067826a66/dist/9e284198aaef8c500a1145e962e8a4d0.webp",
    "grid_items": [
      {
        "letter": "G",
        "color": "black"
      },
      {
        "letter": "B",
        "color": "black"
      },
      {
        "letter": "L",
        "color": "black"
      },
      {
        "letter": "N",
        "color": "black"
      },
      {
        "letter": "",
        "color": "white"
      },
      {
        "letter": "",
        "color": "white"
      },
      {
        "letter": "",
        "color": "white"
      },
      {
        "letter": "",
        "color": "white"
      }
    ],
    "target": {
      "letter": "D",
      "color": "black"
    },
    "gaze_direction": "right",
    "grid_position": "left",
    "target_type": "invalid",
    "block": "block-1",
    "face": "f",
    "window": {
      "dimensions": [
        900,
        1440
      ],
      "isFullscreen": "BODY"
    },
    "rt": 942,
    "response_type": "key",
    "key_press": "ArrowDown",
    "response": "ArrowDown",
    "avg_frame_time": 16.667649999999917,
    "center_x": 400,
    "center_y": 225,
    "trial_type": "psychophysics",
    "trial_index": 116,
    "plugin_version": "4.0.0",
    "time_elapsed": 286835
  },
  {
    "rt": null,
    "response_type": "key",
    "key_press": null,
    "response": null,
    "avg_frame_time": 16.66599999999938,
    "center_x": 400,
    "center_y": 225,
    "trial_type": "psychophysics",
    "trial_index": 117,
    "plugin_version": "4.0.0",
    "time_elapsed": 287342
  },
  {
    "image1": "https://jatos.mindprobe.eu/publix/f1ceaa83-3d01-40ae-b283-eef067826a66/dist/0738b36f5c5284a1fbe6de5047928226.webp",
    "image2": "https://jatos.mindprobe.eu/publix/f1ceaa83-3d01-40ae-b283-eef067826a66/dist/c2c6af7a7e254bf30109d9388b53b5d8.webp",
    "grid_items": [
      {
        "letter": "M",
        "color": "black"
      },
      {
        "letter": "P",
        "color": "black"
      },
      {
        "letter": "T",
        "color": "black"
      },
      {
        "letter": "B",
        "color": "black"
      },
      {
        "letter": "",
        "color": "white"
      },
      {
        "letter": "",
        "color": "white"
      },
      {
        "letter": "",
        "color": "white"
      },
      {
        "letter": "",
        "color": "white"
      }
    ],
    "target": {
      "letter": "T",
      "color": "black"
    },
    "gaze_direction": "left",
    "grid_position": "left",
    "target_type": "valid",
    "block": "block-1",
    "face": "d",
    "window": {
      "dimensions": [
        900,
        1440
      ],
      "isFullscreen": "BODY"
    },
    "rt": 774,
    "response_type": "key",
    "key_press": "ArrowUp",
    "response": "ArrowUp",
    "avg_frame_time": 16.66600000000013,
    "center_x": 400,
    "center_y": 225,
    "trial_type": "psychophysics",
    "trial_index": 118,
    "plugin_version": "4.0.0",
    "time_elapsed": 291539
  },
  {
    "rt": null,
    "response_type": "key",
