[
  {
    "success": true,
    "timeout": false,
    "failed_images": [],
    "failed_audio": [],
    "failed_video": [],
    "trial_type": "preload",
    "trial_index": 0,
    "plugin_version": "2.1.0",
    "time_elapsed": 656
  },
  {
    "rt": 5876,
    "response": " ",
    "trial_type": "html-keyboard-response",
    "trial_index": 1,
    "plugin_version": "2.1.0",
    "time_elapsed": 6535
  },
  {
    "image1": "https://jatos.mindprobe.eu/publix/a0e4d26b-79fc-41ad-bc4a-2e94e2822523/dist/40dece98c751976c5ae971fb799b576a.webp",
    "image2": "https://jatos.mindprobe.eu/publix/a0e4d26b-79fc-41ad-bc4a-2e94e2822523/dist/a0953907ed0c4f557cc32072c240bdb4.webp",
    "grid_items": [
      {
        "letter": "",
        "color": "white"
      },
      {
        "letter": "",
        "color": "white"
      },
      {
        "letter": "",
        "color": "white"
      },
      {
        "letter": "",
        "color": "white"
      },
      {
        "letter": "B",
        "color": "black"
      },
      {
        "letter": "K",
        "color": "black"
      },
      {
        "letter": "F",
        "color": "black"
      },
      {
        "letter": "T",
        "color": "black"
      }
    ],
    "target": {
      "letter": "D",
      "color": "black"
    },
    "gaze_direction": "right",
    "grid_position": "right",
    "target_type": "invalid",
    "block": "practice",
    "face": "b",
    "window": {
      "dimensions": [
        800,
        1422
      ],
      "isFullscreen": "BODY"
    },
    "rt": null,
    "response_type": "key",
    "key_press": null,
    "response": null,
    "avg_frame_time": 16.653968253968255,
    "center_x": 399.6296578604845,
    "center_y": 224.81483069630593,
    "trial_type": "psychophysics",
    "trial_index": 2,
    "plugin_version": "4.0.0",
    "time_elapsed": 12859
  },
  {
    "rt": null,
    "response_type": "key",
    "key_press": null,
    "response": null,
    "avg_frame_time": 16.659999999999975,
    "center_x": 399.6296578604845,
    "center_y": 224.81483069630593,
    "trial_type": "psychophysics",
    "trial_index": 3,
    "plugin_version": "4.0.0",
    "time_elapsed": 13367
  },
  {
    "image1": "https://jatos.mindprobe.eu/publix/a0e4d26b-79fc-41ad-bc4a-2e94e2822523/dist/36ce3cf01c34ab194e87cdb81ee9890f.webp",
    "image2": "https://jatos.mindprobe.eu/publix/a0e4d26b-79fc-41ad-bc4a-2e94e2822523/dist/7abc9556bd3afc91e874c19e0dfb4358.webp",
    "grid_items": [
      {
        "letter": "P",
        "color": "black"
      },
      {
        "letter": "L",
        "color": "black"
      },
      {
        "letter": "F",
        "color": "black"
      },
      {
        "letter": "R",
        "color": "black"
      },
      {
        "letter": "",
        "color": "white"
      },
      {
        "letter": "",
        "color": "white"
      },
      {
        "letter": "",
        "color": "white"
      },
      {
        "letter": "",
        "color": "white"
      }
    ],
    "target": {
      "letter": "N",
      "color": "black"
    },
    "gaze_direction": "right",
    "grid_position": "left",
    "target_type": "invalid",
    "block": "practice",
    "face": "c",
    "window": {
      "dimensions": [
        800,
        1422
      ],
      "isFullscreen": "BODY"
    },
    "rt": 2256,
    "response_type": "key",
    "key_press": "ArrowDown",
    "response": "ArrowDown",
    "avg_frame_time": 16.652071005917154,
    "center_x": 399.6296578604845,
    "center_y": 224.81483069630593,
    "trial_type": "psychophysics",
    "trial_index": 4,
    "plugin_version": "4.0.0",
    "time_elapsed": 19028
  },
  {
    "rt": null,
    "response_type": "key",
    "key_press": null,
    "response": null,
    "avg_frame_time": 16.66896551724143,
    "center_x": 399.6296578604845,
    "center_y": 224.81483069630593,
    "trial_type": "psychophysics",
    "trial_index": 5,
    "plugin_version": "4.0.0",
    "time_elapsed": 19535
  },
  {
    "image1": "https://jatos.mindprobe.eu/publix/a0e4d26b-79fc-41ad-bc4a-2e94e2822523/dist/0738b36f5c5284a1fbe6de5047928226.webp",
    "image2": "https://jatos.mindprobe.eu/publix/a0e4d26b-79fc-41ad-bc4a-2e94e2822523/dist/48e5157934b56d46aee0926365abe09d.webp",
    "grid_items": [
      {
        "letter": "L",
        "color": "black"
      },
      {
        "letter": "C",
        "color": "black"
      },
      {
        "letter": "P",
        "color": "black"
      },
      {
        "letter": "K",
        "color": "black"
      },
      {
        "letter": "",
        "color": "white"
      },
      {
        "letter": "",
        "color": "white"
      },
      {
        "letter": "",
        "color": "white"
      },
      {
        "letter": "",
        "color": "white"
      }
    ],
    "target": {
      "letter": "D",
      "color": "black"
    },
    "gaze_direction": "right",
    "grid_position": "left",
    "target_type": "invalid",
    "block": "practice",
    "face": "d",
    "window": {
      "dimensions": [
        800,
        1422
      ],
      "isFullscreen": "BODY"
    },
    "rt": 1146,
    "response_type": "key",
    "key_press": "ArrowDown",
    "response": "ArrowDown",
    "avg_frame_time": 16.65183823529413,
    "center_x": 399.6296578604845,
    "center_y": 224.81483069630593,
    "trial_type": "psychophysics",
    "trial_index": 6,
    "plugin_version": "4.0.0",
    "time_elapsed": 24092
  },
  {
    "rt": null,
    "response_type": "key",
    "key_press": null,
    "response": null,
    "avg_frame_time": 16.64827586206894,
    "center_x": 399.6296578604845,
    "center_y": 224.81483069630593,
    "trial_type": "psychophysics",
    "trial_index": 7,
    "plugin_version": "4.0.0",
    "time_elapsed": 24598
  },
  {
    "image1": "https://jatos.mindprobe.eu/publix/a0e4d26b-79fc-41ad-bc4a-2e94e2822523/dist/40dece98c751976c5ae971fb799b576a.webp",
    "image2": "https://jatos.mindprobe.eu/publix/a0e4d26b-79fc-41ad-bc4a-2e94e2822523/dist/a0953907ed0c4f557cc32072c240bdb4.webp",
    "grid_items": [
      {
        "letter": "",
        "color": "white"
      },
      {
        "letter": "",
        "color": "white"
      },
      {
        "letter": "",
        "color": "white"
      },
      {
        "letter": "",
        "color": "white"
      },
      {
        "letter": "P",
        "color": "black"
      },
      {
        "letter": "F",
        "color": "black"
      },
      {
        "letter": "M",
        "color": "black"
      },
      {
        "letter": "T",
        "color": "black"
      }
    ],
    "target": {
      "letter": "P",
      "color": "black"
    },
    "gaze_direction": "right",
    "grid_position": "right",
    "target_type": "valid",
    "block": "practice",
    "face": "b",
    "window": {
      "dimensions": [
        800,
        1422
      ],
      "isFullscreen": "BODY"
    },
    "rt": 896,
    "response_type": "key",
    "key_press": "ArrowDown",
    "response": "ArrowDown",
    "avg_frame_time": 16.654474708171193,
    "center_x": 399.6296578604845,
    "center_y": 224.81483069630593,
    "trial_type": "psychophysics",
    "trial_index": 8,
    "plugin_version": "4.0.0",
    "time_elapsed": 28902
  },
  {
    "rt": null,
    "response_type": "key",
    "key_press": null,
    "response": null,
    "avg_frame_time": 16.66896551724143,
    "center_x": 399.6296578604845,
    "center_y": 224.81483069630593,
    "trial_type": "psychophysics",
    "trial_index": 9,
    "plugin_version": "4.0.0",
    "time_elapsed": 29410
  },
  {
    "image1": "https://jatos.mindprobe.eu/publix/a0e4d26b-79fc-41ad-bc4a-2e94e2822523/dist/1d4fc1100b57f312ef6f7e81e8502a85.webp",
    "image2": "https://jatos.mindprobe.eu/publix/a0e4d26b-79fc-41ad-bc4a-2e94e2822523/dist/f133a138299afe57854b3487f1de2960.webp",
    "grid_items": [
      {
        "letter": "D",
        "color": "black"
      },
      {
        "letter": "T",
        "color": "black"
      },
      {
        "letter": "R",
        "color": "black"
      },
      {
        "letter": "K",
        "color": "black"
      },
      {
        "letter": "",
        "color": "white"
      },
      {
        "letter": "",
        "color": "white"
      },
      {
        "letter": "",
        "color": "white"
      },
      {
        "letter": "",
        "color": "white"
      }
    ],
    "target": {
      "letter": "C",
      "color": "black"
    },
    "gaze_direction": "right",
    "grid_position": "left",
    "target_type": "invalid",
    "block": "practice",
    "face": "e",
    "window": {
      "dimensions": [
        800,
        1422
      ],
      "isFullscreen": "BODY"
    },
    "rt": 1081,
    "response_type": "key",
    "key_press": "ArrowDown",
    "response": "ArrowDown",
    "avg_frame_time": 16.65149253731344,
    "center_x": 399.6296578604845,
    "center_y": 224.81483069630593,
    "trial_type": "psychophysics",
    "trial_index": 10,
    "plugin_version": "4.0.0",
    "time_elapsed": 33901
  },
  {
    "rt": null,
    "response_type": "key",
    "key_press": null,
    "response": null,
    "avg_frame_time": 16.660000000000096,
    "center_x": 399.6296578604845,
    "center_y": 224.81483069630593,
    "trial_type": "psychophysics",
    "trial_index": 11,
    "plugin_version": "4.0.0",
    "time_elapsed": 34408
  },
  {
    "image1": "https://jatos.mindprobe.eu/publix/a0e4d26b-79fc-41ad-bc4a-2e94e2822523/dist/1d4fc1100b57f312ef6f7e81e8502a85.webp",
    "image2": "https://jatos.mindprobe.eu/publix/a0e4d26b-79fc-41ad-bc4a-2e94e2822523/dist/7aa52bcb2291ad2c1eab0a1c309e9ebe.webp",
    "grid_items": [
      {
        "letter": "",
        "color": "white"
      },
      {
        "letter": "",
        "color": "white"
      },
      {
        "letter": "",
        "color": "white"
      },
      {
        "letter": "",
        "color": "white"
      },
      {
        "letter": "H",
        "color": "black"
      },
      {
        "letter": "N",
        "color": "black"
      },
      {
        "letter": "B",
        "color": "black"
      },
      {
        "letter": "T",
        "color": "black"
      }
    ],
    "target": {
      "letter": "H",
      "color": "black"
    },
    "gaze_direction": "left",
    "grid_position": "right",
    "target_type": "valid",
    "block": "practice",
    "face": "e",
    "window": {
      "dimensions": [
        800,
        1422
      ],
      "isFullscreen": "BODY"
    },
    "rt": 1155,
    "response_type": "key",
    "key_press": "ArrowDown",
    "response": "ArrowDown",
    "avg_frame_time": 16.652014652014653,
    "center_x": 399.6296578604845,
    "center_y": 224.81483069630593,
    "trial_type": "psychophysics",
    "trial_index": 12,
    "plugin_version": "4.0.0",
    "time_elapsed": 38977
  },
  {
    "rt": null,
    "response_type": "key",
    "key_press": null,
    "response": null,
    "avg_frame_time": 16.644827586207047,
    "center_x": 399.6296578604845,
    "center_y": 224.81483069630593,
    "trial_type": "psychophysics",
    "trial_index": 13,
    "plugin_version": "4.0.0",
    "time_elapsed": 39486
  },
  {
    "image1": "https://jatos.mindprobe.eu/publix/a0e4d26b-79fc-41ad-bc4a-2e94e2822523/dist/0738b36f5c5284a1fbe6de5047928226.webp",
    "image2": "https://jatos.mindprobe.eu/publix/a0e4d26b-79fc-41ad-bc4a-2e94e2822523/dist/c2c6af7a7e254bf30109d9388b53b5d8.webp",
    "grid_items": [
      {
        "letter": "G",
        "color": "black"
      },
      {
        "letter": "M",
        "color": "black"
      },
      {
        "letter": "L",
        "color": "black"
      },
      {
        "letter": "D",
        "color": "black"
      },
      {
        "letter": "",
        "color": "white"
      },
      {
        "letter": "",
        "color": "white"
      },
      {
        "letter": "",
        "color": "white"
      },
      {
        "letter": "",
        "color": "white"
      }
    ],
    "target": {
      "letter": "L",
      "color": "black"
    },
    "gaze_direction": "left",
    "grid_position": "left",
    "target_type": "valid",
    "block": "practice",
    "face": "d",
    "window": {
      "dimensions": [
        800,
        1422
      ],
      "isFullscreen": "BODY"
    },
    "rt": 1105,
    "response_type": "key",
    "key_press": "ArrowUp",
    "response": "ArrowUp",
    "avg_frame_time": 16.652962962962974,
    "center_x": 399.6296578604845,
    "center_y": 224.81483069630593,
    "trial_type": "psychophysics",
    "trial_index": 14,
    "plugin_version": "4.0.0",
    "time_elapsed": 44005
  },
  {
    "rt": null,
    "response_type": "key",
    "key_press": null,
    "response": null,
    "avg_frame_time": 16.66896551724118,
    "center_x": 399.6296578604845,
    "center_y": 224.81483069630593,
    "trial_type": "psychophysics",
    "trial_index": 15,
    "plugin_version": "4.0.0",
    "time_elapsed": 44507
  },
  {
    "image1": "https://jatos.mindprobe.eu/publix/a0e4d26b-79fc-41ad-bc4a-2e94e2822523/dist/d429c5287be0e7ceba842a59a42841aa.webp",
    "image2": "https://jatos.mindprobe.eu/publix/a0e4d26b-79fc-41ad-bc4a-2e94e2822523/dist/9e284198aaef8c500a1145e962e8a4d0.webp",
    "grid_items": [
      {
        "letter": "L",
        "color": "black"
      },
      {
        "letter": "P",
        "color": "black"
      },
      {
        "letter": "S",
        "color": "black"
      },
      {
        "letter": "T",
        "color": "black"
      },
      {
        "letter": "",
        "color": "white"
      },
      {
        "letter": "",
        "color": "white"
      },
      {
        "letter": "",
        "color": "white"
      },
      {
        "letter": "",
        "color": "white"
      }
    ],
    "target": {
      "letter": "S",
      "color": "black"
    },
    "gaze_direction": "right",
    "grid_position": "left",
    "target_type": "valid",
    "block": "practice",
    "face": "f",
    "window": {
      "dimensions": [
        800,
        1422
      ],
      "isFullscreen": "BODY"
    },
    "rt": 1353,
    "response_type": "key",
    "key_press": "ArrowUp",
    "response": "ArrowUp",
    "avg_frame_time": 16.65352112676056,
    "center_x": 399.6296578604845,
    "center_y": 224.81483069630593,
    "trial_type": "psychophysics",
    "trial_index": 16,
    "plugin_version": "4.0.0",
    "time_elapsed": 49274
  },
  {
    "rt": null,
    "response_type": "key",
    "key_press": null,
    "response": null,
    "avg_frame_time": 16.666666666666668,
    "center_x": 399.6296578604845,
    "center_y": 224.81483069630593,
    "trial_type": "psychophysics",
    "trial_index": 17,
    "plugin_version": "4.0.0",
    "time_elapsed": 49778
  },
  {
    "image1": "https://jatos.mindprobe.eu/publix/a0e4d26b-79fc-41ad-bc4a-2e94e2822523/dist/36ce3cf01c34ab194e87cdb81ee9890f.webp",
    "image2": "https://jatos.mindprobe.eu/publix/a0e4d26b-79fc-41ad-bc4a-2e94e2822523/dist/7abc9556bd3afc91e874c19e0dfb4358.webp",
    "grid_items": [
      {
        "letter": "L",
        "color": "black"
      },
      {
        "letter": "B",
        "color": "black"
      },
      {
        "letter": "T",
        "color": "black"
      },
      {
        "letter": "C",
        "color": "black"
      },
      {
        "letter": "",
        "color": "white"
      },
      {
        "letter": "",
        "color": "white"
      },
      {
        "letter": "",
        "color": "white"
      },
      {
        "letter": "",
        "color": "white"
      }
    ],
    "target": {
      "letter": "L",
      "color": "black"
    },
    "gaze_direction": "right",
    "grid_position": "left",
    "target_type": "valid",
    "block": "practice",
    "face": "c",
    "window": {
      "dimensions": [
        800,
        1422
      ],
      "isFullscreen": "BODY"
    },
    "rt": 1320,
    "response_type": "key",
    "key_press": "ArrowUp",
    "response": "ArrowUp",
    "avg_frame_time": 16.652296819788006,
    "center_x": 399.6296578604845,
    "center_y": 224.81483069630593,
    "trial_type": "psychophysics",
    "trial_index": 18,
    "plugin_version": "4.0.0",
    "time_elapsed": 54509
  },
  {
    "rt": null,
    "response_type": "key",
    "key_press": null,
    "response": null,
    "avg_frame_time": 16.644827586207047,
    "center_x": 399.6296578604845,
    "center_y": 224.81483069630593,
    "trial_type": "psychophysics",
    "trial_index": 19,
    "plugin_version": "4.0.0",
    "time_elapsed": 55019
  },
  {
    "image1": "https://jatos.mindprobe.eu/publix/a0e4d26b-79fc-41ad-bc4a-2e94e2822523/dist/b2b7faaf2a59bb4bdfcb862858551c57.webp",
    "image2": "https://jatos.mindprobe.eu/publix/a0e4d26b-79fc-41ad-bc4a-2e94e2822523/dist/a2b978bad27da55c204371f73357f1d7.webp",
    "grid_items": [
      {
        "letter": "",
        "color": "white"
      },
      {
        "letter": "",
        "color": "white"
      },
      {
        "letter": "",
        "color": "white"
      },
      {
        "letter": "",
        "color": "white"
      },
      {
        "letter": "G",
        "color": "black"
      },
      {
        "letter": "L",
        "color": "black"
      },
      {
        "letter": "T",
        "color": "black"
      },
      {
        "letter": "B",
        "color": "black"
      }
    ],
    "target": {
      "letter": "L",
      "color": "black"
    },
    "gaze_direction": "left",
    "grid_position": "right",
    "target_type": "valid",
    "block": "practice",
    "face": "a",
    "window": {
      "dimensions": [
        800,
        1422
      ],
      "isFullscreen": "BODY"
    },
    "rt": 1673,
    "response_type": "key",
    "key_press": "ArrowUp",
    "response": "ArrowUp",
    "avg_frame_time": 16.651973684210517,
    "center_x": 399.6296578604845,
    "center_y": 224.81483069630593,
    "trial_type": "psychophysics",
    "trial_index": 20,
    "plugin_version": "4.0.0",
    "time_elapsed": 60107
  },
  {
    "rt": null,
    "response_type": "key",
    "key_press": null,
    "response": null,
    "avg_frame_time": 16.655172413793103,
    "center_x": 399.6296578604845,
    "center_y": 224.81483069630593,
    "trial_type": "psychophysics",
    "trial_index": 21,
    "plugin_version": "4.0.0",
    "time_elapsed": 60617
  },
  {
    "image1": "https://jatos.mindprobe.eu/publix/a0e4d26b-79fc-41ad-bc4a-2e94e2822523/dist/b2b7faaf2a59bb4bdfcb862858551c57.webp",
    "image2": "https://jatos.mindprobe.eu/publix/a0e4d26b-79fc-41ad-bc4a-2e94e2822523/dist/a2b978bad27da55c204371f73357f1d7.webp",
    "grid_items": [
      {
        "letter": "",
        "color": "white"
      },
      {
        "letter": "",
        "color": "white"
      },
      {
        "letter": "",
        "color": "white"
      },
      {
        "letter": "",
        "color": "white"
      },
      {
        "letter": "L",
        "color": "black"
      },
      {
        "letter": "T",
        "color": "black"
      },
      {
        "letter": "C",
        "color": "black"
      },
      {
        "letter": "H",
        "color": "black"
      }
    ],
    "target": {
      "letter": "P",
      "color": "black"
    },
    "gaze_direction": "left",
    "grid_position": "right",
    "target_type": "invalid",
    "block": "practice",
    "face": "a",
    "window": {
      "dimensions": [
        800,
        1422
      ],
      "isFullscreen": "BODY"
    },
    "rt": 1265,
    "response_type": "key",
    "key_press": "ArrowDown",
    "response": "ArrowDown",
    "avg_frame_time": 16.65340501792116,
    "center_x": 399.6296578604845,
    "center_y": 224.81483069630593,
    "trial_type": "psychophysics",
    "trial_index": 22,
    "plugin_version": "4.0.0",
    "time_elapsed": 65297
  },
  {
    "rt": null,
    "response_type": "key",
    "key_press": null,
    "response": null,
    "avg_frame_time": 16.673333333333236,
    "center_x": 399.6296578604845,
    "center_y": 224.81483069630593,
    "trial_type": "psychophysics",
    "trial_index": 23,
    "plugin_version": "4.0.0",
    "time_elapsed": 65806
  },
  {
    "image1": "https://jatos.mindprobe.eu/publix/a0e4d26b-79fc-41ad-bc4a-2e94e2822523/dist/d429c5287be0e7ceba842a59a42841aa.webp",
    "image2": "https://jatos.mindprobe.eu/publix/a0e4d26b-79fc-41ad-bc4a-2e94e2822523/dist/9e284198aaef8c500a1145e962e8a4d0.webp",
    "grid_items": [
      {
        "letter": "",
        "color": "white"
      },
      {
        "letter": "",
        "color": "white"
      },
      {
        "letter": "",
        "color": "white"
      },
      {
        "letter": "",
        "color": "white"
      },
      {
        "letter": "S",
        "color": "black"
      },
      {
        "letter": "R",
        "color": "black"
      },
      {
        "letter": "H",
        "color": "black"
      },
      {
        "letter": "N",
        "color": "black"
      }
    ],
    "target": {
      "letter": "D",
      "color": "black"
    },
    "gaze_direction": "right",
    "grid_position": "right",
    "target_type": "invalid",
    "block": "practice",
    "face": "f",
    "window": {
      "dimensions": [
        800,
        1422
      ],
      "isFullscreen": "BODY"
    },
    "rt": 1109,
    "response_type": "key",
    "key_press": "ArrowDown",
    "response": "ArrowDown",
    "avg_frame_time": 16.651851851851852,
    "center_x": 399.6296578604845,
    "center_y": 224.81483069630593,
    "trial_type": "psychophysics",
    "trial_index": 24,
    "plugin_version": "4.0.0",
    "time_elapsed": 70330
  },
  {
    "rt": null,
    "response_type": "key",
    "key_press": null,
    "response": null,
    "avg_frame_time": 16.644827586206794,
    "center_x": 399.6296578604845,
    "center_y": 224.81483069630593,
    "trial_type": "psychophysics",
    "trial_index": 25,
    "plugin_version": "4.0.0",
    "time_elapsed": 70833
  },
  {
    "rt": 574,
    "response": 0,
    "trial_type": "html-button-response",
    "trial_index": 26,
    "plugin_version": "2.1.0",
    "time_elapsed": 71410
  },
  {
    "rt": 6752,
    "response": " ",
    "trial_type": "html-keyboard-response",
    "trial_index": 27,
    "plugin_version": "2.1.0",
    "time_elapsed": 78164
  },
  {
    "image1": "https://jatos.mindprobe.eu/publix/a0e4d26b-79fc-41ad-bc4a-2e94e2822523/dist/b2b7faaf2a59bb4bdfcb862858551c57.webp",
    "image2": "https://jatos.mindprobe.eu/publix/a0e4d26b-79fc-41ad-bc4a-2e94e2822523/dist/a2b978bad27da55c204371f73357f1d7.webp",
    "grid_items": [
      {
        "letter": "S",
        "color": "black"
      },
      {
        "letter": "D",
        "color": "black"
      },
      {
        "letter": "B",
        "color": "black"
      },
      {
        "letter": "F",
        "color": "black"
      },
      {
        "letter": "",
        "color": "white"
      },
      {
        "letter": "",
        "color": "white"
      },
      {
        "letter": "",
        "color": "white"
      },
      {
        "letter": "",
        "color": "white"
      }
    ],
    "target": {
      "letter": "S",
      "color": "black"
    },
    "gaze_direction": "left",
    "grid_position": "left",
    "target_type": "valid",
    "block": "block-1",
    "face": "a",
    "window": {
      "dimensions": [
        800,
        1422
      ],
      "isFullscreen": "BODY"
    },
    "rt": 1044,
    "response_type": "key",
    "key_press": "ArrowDown",
    "response": "ArrowDown",
    "avg_frame_time": 16.65375939849622,
    "center_x": 399.6296578604845,
    "center_y": 224.81483069630593,
    "trial_type": "psychophysics",
    "trial_index": 28,
    "plugin_version": "4.0.0",
    "time_elapsed": 82614
  },
  {
    "rt": null,
    "response_type": "key",
    "key_press": null,
    "response": null,
    "avg_frame_time": 16.646666666666473,
    "center_x": 399.6296578604845,
    "center_y": 224.81483069630593,
    "trial_type": "psychophysics",
    "trial_index": 29,
    "plugin_version": "4.0.0",
    "time_elapsed": 83125
  },
  {
    "image1": "https://jatos.mindprobe.eu/publix/a0e4d26b-79fc-41ad-bc4a-2e94e2822523/dist/d429c5287be0e7ceba842a59a42841aa.webp",
    "image2": "https://jatos.mindprobe.eu/publix/a0e4d26b-79fc-41ad-bc4a-2e94e2822523/dist/9e284198aaef8c500a1145e962e8a4d0.webp",
    "grid_items": [
      {
        "letter": "",
        "color": "white"
      },
      {
        "letter": "",
        "color": "white"
      },
      {
        "letter": "",
        "color": "white"
      },
      {
        "letter": "",
        "color": "white"
      },
      {
        "letter": "S",
        "color": "black"
      },
      {
        "letter": "C",
        "color": "black"
      },
      {
        "letter": "H",
        "color": "black"
      },
      {
        "letter": "T",
        "color": "black"
      }
    ],
    "target": {
      "letter": "T",
      "color": "black"
    },
    "gaze_direction": "right",
    "grid_position": "right",
    "target_type": "valid",
    "block": "block-1",
    "face": "f",
    "window": {
      "dimensions": [
        800,
        1422
      ],
      "isFullscreen": "BODY"
    },
    "rt": 855,
    "response_type": "key",
    "key_press": "ArrowUp",
    "response": "ArrowUp",
    "avg_frame_time": 16.654330708661462,
    "center_x": 399.6296578604845,
    "center_y": 224.81483069630593,
    "trial_type": "psychophysics",
    "trial_index": 30,
    "plugin_version": "4.0.0",
    "time_elapsed": 87385
  },
  {
    "rt": null,
    "response_type": "key",
    "key_press": null,
    "response": null,
    "avg_frame_time": 16.66896551724168,
    "center_x": 399.6296578604845,
    "center_y": 224.81483069630593,
    "trial_type": "psychophysics",
    "trial_index": 31,
    "plugin_version": "4.0.0",
    "time_elapsed": 87888
  },
  {
    "image1": "https://jatos.mindprobe.eu/publix/a0e4d26b-79fc-41ad-bc4a-2e94e2822523/dist/0738b36f5c5284a1fbe6de5047928226.webp",
    "image2": "https://jatos.mindprobe.eu/publix/a0e4d26b-79fc-41ad-bc4a-2e94e2822523/dist/c2c6af7a7e254bf30109d9388b53b5d8.webp",
    "grid_items": [
      {
        "letter": "",
        "color": "white"
      },
      {
        "letter": "",
        "color": "white"
      },
      {
        "letter": "",
        "color": "white"
      },
      {
        "letter": "",
        "color": "white"
      },
      {
        "letter": "T",
        "color": "black"
      },
      {
        "letter": "K",
        "color": "black"
      },
      {
        "letter": "P",
        "color": "black"
      },
      {
        "letter": "D",
        "color": "black"
      }
    ],
    "target": {
      "letter": "H",
      "color": "black"
    },
    "gaze_direction": "left",
    "grid_position": "right",
    "target_type": "invalid",
    "block": "block-1",
    "face": "d",
    "window": {
      "dimensions": [
        800,
        1422
      ],
      "isFullscreen": "BODY"
    },
    "rt": 1022,
    "response_type": "key",
    "key_press": "ArrowDown",
    "response": "ArrowDown",
    "avg_frame_time": 16.6539622641509,
    "center_x": 399.6296578604845,
    "center_y": 224.81483069630593,
    "trial_type": "psychophysics",
    "trial_index": 32,
    "plugin_version": "4.0.0",
    "time_elapsed": 92316
  },
  {
    "rt": null,
    "response_type": "key",
    "key_press": null,
    "response": null,
    "avg_frame_time": 16.648275862068566,
    "center_x": 399.6296578604845,
    "center_y": 224.81483069630593,
    "trial_type": "psychophysics",
    "trial_index": 33,
    "plugin_version": "4.0.0",
    "time_elapsed": 92818
  },
  {
    "image1": "https://jatos.mindprobe.eu/publix/a0e4d26b-79fc-41ad-bc4a-2e94e2822523/dist/36ce3cf01c34ab194e87cdb81ee9890f.webp",
    "image2": "https://jatos.mindprobe.eu/publix/a0e4d26b-79fc-41ad-bc4a-2e94e2822523/dist/7abc9556bd3afc91e874c19e0dfb4358.webp",
    "grid_items": [
      {
        "letter": "B",
        "color": "black"
      },
      {
        "letter": "N",
        "color": "black"
      },
      {
        "letter": "G",
        "color": "black"
      },
      {
        "letter": "S",
        "color": "black"
      },
      {
        "letter": "",
        "color": "white"
      },
      {
        "letter": "",
        "color": "white"
      },
      {
        "letter": "",
        "color": "white"
      },
      {
        "letter": "",
        "color": "white"
      }
    ],
    "target": {
      "letter": "S",
      "color": "black"
    },
    "gaze_direction": "right",
    "grid_position": "left",
    "target_type": "valid",
    "block": "block-1",
    "face": "c",
    "window": {
      "dimensions": [
        800,
        1422
      ],
      "isFullscreen": "BODY"
    },
    "rt": 888,
    "response_type": "key",
    "key_press": "ArrowDown",
    "response": "ArrowDown",
    "avg_frame_time": 16.6571984435798,
    "center_x": 399.6296578604845,
    "center_y": 224.81483069630593,
    "trial_type": "psychophysics",
    "trial_index": 34,
    "plugin_version": "4.0.0",
    "time_elapsed": 97112
  },
  {
    "rt": null,
    "response_type": "key",
    "key_press": null,
    "response": null,
    "avg_frame_time": 16.662068965517644,
    "center_x": 399.6296578604845,
    "center_y": 224.81483069630593,
    "trial_type": "psychophysics",
    "trial_index": 35,
    "plugin_version": "4.0.0",
    "time_elapsed": 97614
  },
  {
    "image1": "https://jatos.mindprobe.eu/publix/a0e4d26b-79fc-41ad-bc4a-2e94e2822523/dist/36ce3cf01c34ab194e87cdb81ee9890f.webp",
    "image2": "https://jatos.mindprobe.eu/publix/a0e4d26b-79fc-41ad-bc4a-2e94e2822523/dist/7abc9556bd3afc91e874c19e0dfb4358.webp",
    "grid_items": [
      {
        "letter": "F",
        "color": "black"
      },
      {
        "letter": "H",
        "color": "black"
      },
      {
        "letter": "P",
        "color": "black"
      },
      {
        "letter": "L",
        "color": "black"
      },
      {
        "letter": "",
        "color": "white"
      },
      {
        "letter": "",
        "color": "white"
      },
      {
        "letter": "",
        "color": "white"
      },
      {
        "letter": "",
        "color": "white"
      }
    ],
    "target": {
      "letter": "T",
      "color": "black"
    },
    "gaze_direction": "right",
    "grid_position": "left",
    "target_type": "invalid",
    "block": "block-1",
    "face": "c",
    "window": {
      "dimensions": [
        800,
        1422
      ],
      "isFullscreen": "BODY"
    },
    "rt": 1000,
    "response_type": "key",
    "key_press": "ArrowDown",
    "response": "ArrowDown",
    "avg_frame_time": 16.653030303030334,
    "center_x": 399.6296578604845,
    "center_y": 224.81483069630593,
    "trial_type": "psychophysics",
    "trial_index": 36,
    "plugin_version": "4.0.0",
    "time_elapsed": 102020
  },
  {
    "rt": null,
    "response_type": "key",
    "key_press": null,
    "response": null,
    "avg_frame_time": 16.655172413793103,
    "center_x": 399.6296578604845,
    "center_y": 224.81483069630593,
    "trial_type": "psychophysics",
    "trial_index": 37,
    "plugin_version": "4.0.0",
    "time_elapsed": 102527
  },
  {
    "image1": "https://jatos.mindprobe.eu/publix/a0e4d26b-79fc-41ad-bc4a-2e94e2822523/dist/1d4fc1100b57f312ef6f7e81e8502a85.webp",
    "image2": "https://jatos.mindprobe.eu/publix/a0e4d26b-79fc-41ad-bc4a-2e94e2822523/dist/7aa52bcb2291ad2c1eab0a1c309e9ebe.webp",
    "grid_items": [
      {
        "letter": "F",
        "color": "black"
      },
      {
        "letter": "D",
        "color": "black"
      },
      {
        "letter": "H",
        "color": "black"
      },
      {
        "letter": "S",
        "color": "black"
      },
      {
        "letter": "",
        "color": "white"
      },
      {
        "letter": "",
        "color": "white"
      },
      {
        "letter": "",
        "color": "white"
      },
      {
        "letter": "",
        "color": "white"
      }
    ],
    "target": {
      "letter": "H",
      "color": "black"
    },
    "gaze_direction": "left",
    "grid_position": "left",
    "target_type": "valid",
    "block": "block-1",
    "face": "e",
    "window": {
      "dimensions": [
        800,
        1422
      ],
      "isFullscreen": "BODY"
    },
    "rt": 1447,
    "response_type": "key",
    "key_press": "ArrowUp",
    "response": "ArrowUp",
    "avg_frame_time": 16.652758620689664,
    "center_x": 399.6296578604845,
    "center_y": 224.81483069630593,
    "trial_type": "psychophysics",
    "trial_index": 38,
    "plugin_version": "4.0.0",
    "time_elapsed": 107388
  },
  {
    "rt": null,
    "response_type": "key",
    "key_press": null,
    "response": null,
    "avg_frame_time": 16.646666666666473,
    "center_x": 399.6296578604845,
    "center_y": 224.81483069630593,
    "trial_type": "psychophysics",
    "trial_index": 39,
    "plugin_version": "4.0.0",
    "time_elapsed": 107899
  },
  {
    "image1": "https://jatos.mindprobe.eu/publix/a0e4d26b-79fc-41ad-bc4a-2e94e2822523/dist/1d4fc1100b57f312ef6f7e81e8502a85.webp",
    "image2": "https://jatos.mindprobe.eu/publix/a0e4d26b-79fc-41ad-bc4a-2e94e2822523/dist/7aa52bcb2291ad2c1eab0a1c309e9ebe.webp",
    "grid_items": [
      {
        "letter": "G",
        "color": "black"
      },
      {
        "letter": "H",
        "color": "black"
      },
      {
        "letter": "P",
        "color": "black"
      },
      {
        "letter": "S",
        "color": "black"
      },
      {
        "letter": "",
        "color": "white"
      },
      {
        "letter": "",
        "color": "white"
      },
      {
        "letter": "",
        "color": "white"
      },
      {
        "letter": "",
        "color": "white"
      }
    ],
    "target": {
      "letter": "T",
      "color": "black"
    },
    "gaze_direction": "left",
    "grid_position": "left",
    "target_type": "invalid",
    "block": "block-1",
    "face": "e",
    "window": {
      "dimensions": [
        800,
        1422
      ],
      "isFullscreen": "BODY"
    },
    "rt": 854,
    "response_type": "key",
    "key_press": "ArrowDown",
    "response": "ArrowDown",
    "avg_frame_time": 16.654117647058836,
    "center_x": 399.6296578604845,
    "center_y": 224.81483069630593,
    "trial_type": "psychophysics",
    "trial_index": 40,
    "plugin_version": "4.0.0",
    "time_elapsed": 112164
  },
  {
    "rt": null,
    "response_type": "key",
    "key_press": null,
    "response": null,
    "avg_frame_time": 16.655172413793103,
    "center_x": 399.6296578604845,
    "center_y": 224.81483069630593,
    "trial_type": "psychophysics",
    "trial_index": 41,
    "plugin_version": "4.0.0",
    "time_elapsed": 112668
  },
  {
    "image1": "https://jatos.mindprobe.eu/publix/a0e4d26b-79fc-41ad-bc4a-2e94e2822523/dist/0738b36f5c5284a1fbe6de5047928226.webp",
    "image2": "https://jatos.mindprobe.eu/publix/a0e4d26b-79fc-41ad-bc4a-2e94e2822523/dist/c2c6af7a7e254bf30109d9388b53b5d8.webp",
    "grid_items": [
      {
        "letter": "D",
        "color": "black"
      },
      {
        "letter": "T",
        "color": "black"
      },
      {
        "letter": "S",
        "color": "black"
      },
      {
        "letter": "C",
        "color": "black"
      },
      {
        "letter": "",
        "color": "white"
      },
      {
        "letter": "",
        "color": "white"
      },
      {
        "letter": "",
        "color": "white"
      },
      {
        "letter": "",
        "color": "white"
      }
    ],
    "target": {
      "letter": "C",
      "color": "black"
    },
    "gaze_direction": "left",
    "grid_position": "left",
    "target_type": "valid",
    "block": "block-1",
    "face": "d",
    "window": {
      "dimensions": [
        800,
        1422
      ],
      "isFullscreen": "BODY"
    },
    "rt": 974,
    "response_type": "key",
    "key_press": "ArrowUp",
    "response": "ArrowUp",
    "avg_frame_time": 16.65190839694652,
    "center_x": 399.6296578604845,
    "center_y": 224.81483069630593,
    "trial_type": "psychophysics",
    "trial_index": 42,
    "plugin_version": "4.0.0",
    "time_elapsed": 117057
  },
  {
    "rt": null,
    "response_type": "key",
    "key_press": null,
    "response": null,
    "avg_frame_time": 16.655172413793103,
    "center_x": 399.6296578604845,
    "center_y": 224.81483069630593,
    "trial_type": "psychophysics",
    "trial_index": 43,
    "plugin_version": "4.0.0",
    "time_elapsed": 117563
  },
  {
    "image1": "https://jatos.mindprobe.eu/publix/a0e4d26b-79fc-41ad-bc4a-2e94e2822523/dist/36ce3cf01c34ab194e87cdb81ee9890f.webp",
    "image2": "https://jatos.mindprobe.eu/publix/a0e4d26b-79fc-41ad-bc4a-2e94e2822523/dist/6ef25f867bb912257ed8a75458a113f3.webp",
    "grid_items": [
      {
        "letter": "",
        "color": "white"
      },
      {
        "letter": "",
        "color": "white"
      },
      {
        "letter": "",
        "color": "white"
      },
      {
        "letter": "",
        "color": "white"
      },
      {
        "letter": "B",
        "color": "black"
      },
      {
        "letter": "L",
        "color": "black"
      },
      {
        "letter": "F",
        "color": "black"
      },
      {
        "letter": "N",
        "color": "black"
      }
    ],
    "target": {
      "letter": "T",
      "color": "black"
    },
    "gaze_direction": "left",
    "grid_position": "right",
    "target_type": "invalid",
    "block": "block-1",
    "face": "c",
    "window": {
      "dimensions": [
        800,
        1422
      ],
      "isFullscreen": "BODY"
    },
    "rt": 936,
    "response_type": "key",
    "key_press": "ArrowDown",
    "response": "ArrowDown",
    "avg_frame_time": 16.653667953667966,
    "center_x": 399.6296578604845,
    "center_y": 224.81483069630593,
    "trial_type": "psychophysics",
    "trial_index": 44,
    "plugin_version": "4.0.0",
    "time_elapsed": 121906
  },
  {
    "rt": null,
    "response_type": "key",
    "key_press": null,
    "response": null,
    "avg_frame_time": 16.63448275862049,
    "center_x": 399.6296578604845,
    "center_y": 224.81483069630593,
    "trial_type": "psychophysics",
    "trial_index": 45,
    "plugin_version": "4.0.0",
    "time_elapsed": 122417
  },
  {
    "image1": "https://jatos.mindprobe.eu/publix/a0e4d26b-79fc-41ad-bc4a-2e94e2822523/dist/36ce3cf01c34ab194e87cdb81ee9890f.webp",
    "image2": "https://jatos.mindprobe.eu/publix/a0e4d26b-79fc-41ad-bc4a-2e94e2822523/dist/6ef25f867bb912257ed8a75458a113f3.webp",
    "grid_items": [
      {
        "letter": "",
        "color": "white"
      },
      {
        "letter": "",
        "color": "white"
      },
      {
        "letter": "",
        "color": "white"
      },
      {
        "letter": "",
        "color": "white"
      },
      {
        "letter": "T",
        "color": "black"
      },
      {
        "letter": "K",
        "color": "black"
      },
      {
        "letter": "S",
        "color": "black"
      },
      {
        "letter": "R",
        "color": "black"
      }
    ],
    "target": {
      "letter": "R",
      "color": "black"
    },
    "gaze_direction": "left",
    "grid_position": "right",
    "target_type": "valid",
    "block": "block-1",
    "face": "c",
    "window": {
      "dimensions": [
        800,
        1422
      ],
      "isFullscreen": "BODY"
    },
    "rt": 760,
    "response_type": "key",
    "key_press": "ArrowUp",
    "response": "ArrowUp",
    "avg_frame_time": 16.655421686746976,
    "center_x": 399.6296578604845,
    "center_y": 224.81483069630593,
    "trial_type": "psychophysics",
    "trial_index": 46,
    "plugin_version": "4.0.0",
    "time_elapsed": 126592
  },
  {
    "rt": null,
    "response_type": "key",
    "key_press": null,
    "response": null,
    "avg_frame_time": 16.666666666666668,
    "center_x": 399.6296578604845,
    "center_y": 224.81483069630593,
    "trial_type": "psychophysics",
    "trial_index": 47,
    "plugin_version": "4.0.0",
    "time_elapsed": 127098
  },
  {
    "image1": "https://jatos.mindprobe.eu/publix/a0e4d26b-79fc-41ad-bc4a-2e94e2822523/dist/0738b36f5c5284a1fbe6de5047928226.webp",
    "image2": "https://jatos.mindprobe.eu/publix/a0e4d26b-79fc-41ad-bc4a-2e94e2822523/dist/48e5157934b56d46aee0926365abe09d.webp",
    "grid_items": [
      {
        "letter": "",
        "color": "white"
      },
      {
        "letter": "",
        "color": "white"
      },
      {
        "letter": "",
        "color": "white"
      },
      {
        "letter": "",
        "color": "white"
      },
      {
        "letter": "G",
        "color": "black"
      },
      {
        "letter": "F",
        "color": "black"
      },
      {
        "letter": "C",
        "color": "black"
      },
      {
        "letter": "H",
        "color": "black"
      }
    ],
    "target": {
      "letter": "G",
      "color": "black"
    },
    "gaze_direction": "right",
    "grid_position": "right",
    "target_type": "valid",
    "block": "block-1",
    "face": "d",
    "window": {
      "dimensions": [
        800,
        1422
      ],
      "isFullscreen": "BODY"
    },
    "rt": 1550,
    "response_type": "key",
    "key_press": "ArrowDown",
    "response": "ArrowDown",
    "avg_frame_time": 16.652702702702644,
    "center_x": 399.6296578604845,
    "center_y": 224.81483069630593,
    "trial_type": "psychophysics",
    "trial_index": 48,
    "plugin_version": "4.0.0",
    "time_elapsed": 132062
  },
  {
    "rt": null,
    "response_type": "key",
    "key_press": null,
    "response": null,
    "avg_frame_time": 16.651724137930835,
    "center_x": 399.6296578604845,
    "center_y": 224.81483069630593,
    "trial_type": "psychophysics",
    "trial_index": 49,
    "plugin_version": "4.0.0",
    "time_elapsed": 132571
  },
  {
    "image1": "https://jatos.mindprobe.eu/publix/a0e4d26b-79fc-41ad-bc4a-2e94e2822523/dist/b2b7faaf2a59bb4bdfcb862858551c57.webp",
    "image2": "https://jatos.mindprobe.eu/publix/a0e4d26b-79fc-41ad-bc4a-2e94e2822523/dist/a2b978bad27da55c204371f73357f1d7.webp",
    "grid_items": [
      {
        "letter": "",
        "color": "white"
      },
      {
        "letter": "",
        "color": "white"
      },
      {
        "letter": "",
        "color": "white"
      },
      {
        "letter": "",
        "color": "white"
      },
      {
        "letter": "S",
        "color": "black"
      },
      {
        "letter": "D",
        "color": "black"
      },
      {
        "letter": "M",
        "color": "black"
      },
      {
        "letter": "F",
        "color": "black"
      }
    ],
    "target": {
      "letter": "D",
      "color": "black"
    },
    "gaze_direction": "left",
    "grid_position": "right",
    "target_type": "valid",
    "block": "block-1",
    "face": "a",
    "window": {
      "dimensions": [
        800,
        1422
      ],
      "isFullscreen": "BODY"
    },
    "rt": 1143,
    "response_type": "key",
    "key_press": "ArrowUp",
    "response": "ArrowUp",
    "avg_frame_time": 16.654411764705884,
    "center_x": 399.6296578604845,
    "center_y": 224.81483069630593,
    "trial_type": "psychophysics",
    "trial_index": 50,
    "plugin_version": "4.0.0",
    "time_elapsed": 137134
  },
  {
    "rt": null,
    "response_type": "key",
    "key_press": null,
    "response": null,
    "avg_frame_time": 16.648275862068566,
    "center_x": 399.6296578604845,
    "center_y": 224.81483069630593,
    "trial_type": "psychophysics",
    "trial_index": 51,
    "plugin_version": "4.0.0",
    "time_elapsed": 137638
  },
  {
    "image1": "https://jatos.mindprobe.eu/publix/a0e4d26b-79fc-41ad-bc4a-2e94e2822523/dist/0738b36f5c5284a1fbe6de5047928226.webp",
    "image2": "https://jatos.mindprobe.eu/publix/a0e4d26b-79fc-41ad-bc4a-2e94e2822523/dist/48e5157934b56d46aee0926365abe09d.webp",
    "grid_items": [
      {
        "letter": "",
        "color": "white"
      },
      {
        "letter": "",
        "color": "white"
      },
      {
        "letter": "",
        "color": "white"
      },
      {
        "letter": "",
        "color": "white"
      },
      {
        "letter": "F",
        "color": "black"
      },
      {
        "letter": "D",
        "color": "black"
      },
      {
        "letter": "C",
        "color": "black"
      },
      {
        "letter": "B",
        "color": "black"
      }
    ],
    "target": {
      "letter": "G",
      "color": "black"
    },
    "gaze_direction": "right",
    "grid_position": "right",
    "target_type": "invalid",
    "block": "block-1",
    "face": "d",
    "window": {
      "dimensions": [
        800,
        1422
      ],
      "isFullscreen": "BODY"
    },
    "rt": 1023,
    "response_type": "key",
    "key_press": "ArrowDown",
    "response": "ArrowDown",
    "avg_frame_time": 16.654339622641487,
    "center_x": 399.6296578604845,
    "center_y": 224.81483069630593,
    "trial_type": "psychophysics",
    "trial_index": 52,
    "plugin_version": "4.0.0",
    "time_elapsed": 142076
  },
  {
    "rt": null,
    "response_type": "key",
    "key_press": null,
    "response": null,
    "avg_frame_time": 16.651724137930835,
    "center_x": 399.6296578604845,
    "center_y": 224.81483069630593,
    "trial_type": "psychophysics",
    "trial_index": 53,
    "plugin_version": "4.0.0",
    "time_elapsed": 142578
  },
  {
    "image1": "https://jatos.mindprobe.eu/publix/a0e4d26b-79fc-41ad-bc4a-2e94e2822523/dist/1d4fc1100b57f312ef6f7e81e8502a85.webp",
    "image2": "https://jatos.mindprobe.eu/publix/a0e4d26b-79fc-41ad-bc4a-2e94e2822523/dist/f133a138299afe57854b3487f1de2960.webp",
    "grid_items": [
      {
        "letter": "",
        "color": "white"
      },
      {
        "letter": "",
        "color": "white"
      },
      {
        "letter": "",
        "color": "white"
      },
      {
        "letter": "",
        "color": "white"
      },
      {
        "letter": "R",
        "color": "black"
      },
      {
        "letter": "D",
        "color": "black"
      },
      {
        "letter": "H",
        "color": "black"
      },
      {
        "letter": "C",
        "color": "black"
      }
    ],
    "target": {
      "letter": "M",
      "color": "black"
    },
    "gaze_direction": "right",
    "grid_position": "right",
    "target_type": "invalid",
    "block": "block-1",
    "face": "e",
    "window": {
      "dimensions": [
        800,
        1422
      ],
      "isFullscreen": "BODY"
    },
    "rt": 1176,
    "response_type": "key",
    "key_press": "ArrowDown",
    "response": "ArrowDown",
    "avg_frame_time": 16.653284671532848,
    "center_x": 399.6296578604845,
    "center_y": 224.81483069630593,
    "trial_type": "psychophysics",
    "trial_index": 54,
    "plugin_version": "4.0.0",
    "time_elapsed": 147174
  },
  {
    "rt": null,
    "response_type": "key",
    "key_press": null,
    "response": null,
    "avg_frame_time": 16.66206896551664,
    "center_x": 399.6296578604845,
    "center_y": 224.81483069630593,
    "trial_type": "psychophysics",
    "trial_index": 55,
    "plugin_version": "4.0.0",
    "time_elapsed": 147680
  },
  {
    "image1": "https://jatos.mindprobe.eu/publix/a0e4d26b-79fc-41ad-bc4a-2e94e2822523/dist/b2b7faaf2a59bb4bdfcb862858551c57.webp",
    "image2": "https://jatos.mindprobe.eu/publix/a0e4d26b-79fc-41ad-bc4a-2e94e2822523/dist/a2b978bad27da55c204371f73357f1d7.webp",
    "grid_items": [
      {
        "letter": "",
        "color": "white"
      },
      {
        "letter": "",
        "color": "white"
      },
      {
        "letter": "",
        "color": "white"
      },
      {
        "letter": "",
        "color": "white"
      },
      {
        "letter": "D",
        "color": "black"
      },
      {
        "letter": "P",
        "color": "black"
      },
      {
        "letter": "B",
        "color": "black"
      },
      {
        "letter": "R",
        "color": "black"
      }
    ],
    "target": {
      "letter": "L",
      "color": "black"
    },
    "gaze_direction": "left",
    "grid_position": "right",
    "target_type": "invalid",
    "block": "block-1",
    "face": "a",
    "window": {
      "dimensions": [
        800,
        1422
      ],
      "isFullscreen": "BODY"
    },
    "rt": 1031,
    "response_type": "key",
    "key_press": "ArrowDown",
    "response": "ArrowDown",
    "avg_frame_time": 16.65358490566031,
    "center_x": 399.6296578604845,
    "center_y": 224.81483069630593,
    "trial_type": "psychophysics",
    "trial_index": 56,
    "plugin_version": "4.0.0",
    "time_elapsed": 152126
  },
  {
    "rt": null,
    "response_type": "key",
    "key_press": null,
    "response": null,
    "avg_frame_time": 16.670000000000194,
    "center_x": 399.6296578604845,
    "center_y": 224.81483069630593,
    "trial_type": "psychophysics",
    "trial_index": 57,
    "plugin_version": "4.0.0",
    "time_elapsed": 152636
  },
  {
    "image1": "https://jatos.mindprobe.eu/publix/a0e4d26b-79fc-41ad-bc4a-2e94e2822523/dist/b2b7faaf2a59bb4bdfcb862858551c57.webp",
    "image2": "https://jatos.mindprobe.eu/publix/a0e4d26b-79fc-41ad-bc4a-2e94e2822523/dist/afa6e6b610b3cab6c6b449a4e2dd4d02.webp",
    "grid_items": [
      {
        "letter": "M",
        "color": "black"
      },
      {
        "letter": "L",
        "color": "black"
      },
      {
        "letter": "R",
        "color": "black"
      },
      {
        "letter": "N",
        "color": "black"
      },
      {
        "letter": "",
        "color": "white"
      },
      {
        "letter": "",
        "color": "white"
      },
      {
        "letter": "",
        "color": "white"
      },
      {
        "letter": "",
        "color": "white"
      }
    ],
    "target": {
      "letter": "H",
      "color": "black"
    },
    "gaze_direction": "right",
    "grid_position": "left",
    "target_type": "invalid",
    "block": "block-1",
    "face": "a",
    "window": {
      "dimensions": [
        800,
        1422
      ],
      "isFullscreen": "BODY"
    },
    "rt": 1081,
    "response_type": "key",
    "key_press": "ArrowDown",
    "response": "ArrowDown",
    "avg_frame_time": 16.653358208955247,
    "center_x": 399.6296578604845,
    "center_y": 224.81483069630593,
    "trial_type": "psychophysics",
    "trial_index": 58,
    "plugin_version": "4.0.0",
    "time_elapsed": 157131
  },
  {
    "rt": null,
    "response_type": "key",
    "key_press": null,
    "response": null,
    "avg_frame_time": 16.658620689655372,
    "center_x": 399.6296578604845,
    "center_y": 224.81483069630593,
    "trial_type": "psychophysics",
    "trial_index": 59,
    "plugin_version": "4.0.0",
    "time_elapsed": 157639
  },
  {
    "image1": "https://jatos.mindprobe.eu/publix/a0e4d26b-79fc-41ad-bc4a-2e94e2822523/dist/36ce3cf01c34ab194e87cdb81ee9890f.webp",
    "image2": "https://jatos.mindprobe.eu/publix/a0e4d26b-79fc-41ad-bc4a-2e94e2822523/dist/7abc9556bd3afc91e874c19e0dfb4358.webp",
    "grid_items": [
      {
        "letter": "",
        "color": "white"
      },
      {
        "letter": "",
        "color": "white"
      },
      {
        "letter": "",
        "color": "white"
      },
      {
        "letter": "",
        "color": "white"
      },
      {
        "letter": "T",
        "color": "black"
      },
      {
        "letter": "R",
        "color": "black"
      },
      {
        "letter": "C",
        "color": "black"
      },
      {
        "letter": "F",
        "color": "black"
      }
    ],
    "target": {
      "letter": "T",
      "color": "black"
    },
    "gaze_direction": "right",
    "grid_position": "right",
    "target_type": "valid",
    "block": "block-1",
    "face": "c",
    "window": {
      "dimensions": [
        800,
        1422
      ],
      "isFullscreen": "BODY"
    },
    "rt": 1170,
    "response_type": "key",
    "key_press": "ArrowUp",
    "response": "ArrowUp",
    "avg_frame_time": 16.65364963503652,
    "center_x": 399.6296578604845,
    "center_y": 224.81483069630593,
    "trial_type": "psychophysics",
    "trial_index": 60,
    "plugin_version": "4.0.0",
    "time_elapsed": 162223
  },
  {
    "rt": null,
    "response_type": "key",
    "key_press": null,
    "response": null,
    "avg_frame_time": 16.651724137931836,
    "center_x": 399.6296578604845,
    "center_y": 224.81483069630593,
    "trial_type": "psychophysics",
    "trial_index": 61,
    "plugin_version": "4.0.0",
    "time_elapsed": 162728
  },
  {
    "image1": "https://jatos.mindprobe.eu/publix/a0e4d26b-79fc-41ad-bc4a-2e94e2822523/dist/b2b7faaf2a59bb4bdfcb862858551c57.webp",
    "image2": "https://jatos.mindprobe.eu/publix/a0e4d26b-79fc-41ad-bc4a-2e94e2822523/dist/afa6e6b610b3cab6c6b449a4e2dd4d02.webp",
    "grid_items": [
      {
        "letter": "",
        "color": "white"
      },
      {
        "letter": "",
        "color": "white"
      },
      {
        "letter": "",
        "color": "white"
      },
      {
        "letter": "",
        "color": "white"
      },
      {
        "letter": "B",
        "color": "black"
      },
      {
        "letter": "M",
        "color": "black"
      },
      {
        "letter": "N",
        "color": "black"
      },
      {
        "letter": "L",
        "color": "black"
      }
    ],
    "target": {
      "letter": "T",
      "color": "black"
    },
    "gaze_direction": "right",
    "grid_position": "right",
    "target_type": "invalid",
    "block": "block-1",
    "face": "a",
    "window": {
      "dimensions": [
        800,
        1422
      ],
      "isFullscreen": "BODY"
    },
    "rt": 1000,
    "response_type": "key",
    "key_press": "ArrowDown",
    "response": "ArrowDown",
    "avg_frame_time": 16.65303030303039,
    "center_x": 399.6296578604845,
    "center_y": 224.81483069630593,
    "trial_type": "psychophysics",
    "trial_index": 62,
    "plugin_version": "4.0.0",
    "time_elapsed": 167149
  },
  {
    "rt": null,
    "response_type": "key",
    "key_press": null,
    "response": null,
    "avg_frame_time": 16.655172413793103,
    "center_x": 399.6296578604845,
    "center_y": 224.81483069630593,
    "trial_type": "psychophysics",
    "trial_index": 63,
    "plugin_version": "4.0.0",
    "time_elapsed": 167656
  },
  {
    "image1": "https://jatos.mindprobe.eu/publix/a0e4d26b-79fc-41ad-bc4a-2e94e2822523/dist/40dece98c751976c5ae971fb799b576a.webp",
    "image2": "https://jatos.mindprobe.eu/publix/a0e4d26b-79fc-41ad-bc4a-2e94e2822523/dist/539bb0274850bc5c179b9239bd4821e4.webp",
    "grid_items": [
      {
        "letter": "P",
        "color": "black"
      },
      {
        "letter": "F",
        "color": "black"
      },
      {
        "letter": "T",
        "color": "black"
      },
      {
        "letter": "S",
        "color": "black"
      },
      {
        "letter": "",
        "color": "white"
      },
      {
        "letter": "",
        "color": "white"
      },
      {
        "letter": "",
        "color": "white"
      },
      {
        "letter": "",
        "color": "white"
      }
    ],
    "target": {
      "letter": "T",
      "color": "black"
    },
    "gaze_direction": "left",
    "grid_position": "left",
    "target_type": "valid",
    "block": "block-1",
    "face": "b",
    "window": {
      "dimensions": [
        800,
        1422
      ],
      "isFullscreen": "BODY"
    },
    "rt": 635,
    "response_type": "key",
    "key_press": "ArrowUp",
    "response": "ArrowUp",
    "avg_frame_time": 16.653941908713715,
    "center_x": 399.6296578604845,
    "center_y": 224.81483069630593,
    "trial_type": "psychophysics",
    "trial_index": 64,
    "plugin_version": "4.0.0",
    "time_elapsed": 171707
  },
  {
    "rt": null,
    "response_type": "key",
    "key_press": null,
    "response": null,
    "avg_frame_time": 16.662068965517644,
    "center_x": 399.6296578604845,
    "center_y": 224.81483069630593,
    "trial_type": "psychophysics",
    "trial_index": 65,
    "plugin_version": "4.0.0",
    "time_elapsed": 172210
  },
  {
    "image1": "https://jatos.mindprobe.eu/publix/a0e4d26b-79fc-41ad-bc4a-2e94e2822523/dist/0738b36f5c5284a1fbe6de5047928226.webp",
    "image2": "https://jatos.mindprobe.eu/publix/a0e4d26b-79fc-41ad-bc4a-2e94e2822523/dist/48e5157934b56d46aee0926365abe09d.webp",
    "grid_items": [
      {
        "letter": "T",
        "color": "black"
      },
      {
        "letter": "P",
        "color": "black"
      },
      {
        "letter": "F",
        "color": "black"
      },
      {
        "letter": "B",
        "color": "black"
      },
      {
        "letter": "",
        "color": "white"
      },
      {
        "letter": "",
        "color": "white"
      },
      {
        "letter": "",
        "color": "white"
      },
      {
        "letter": "",
        "color": "white"
      }
    ],
    "target": {
      "letter": "N",
      "color": "black"
    },
    "gaze_direction": "right",
    "grid_position": "left",
    "target_type": "invalid",
    "block": "block-1",
    "face": "d",
    "window": {
      "dimensions": [
        800,
        1422
      ],
      "isFullscreen": "BODY"
    },
    "rt": 1025,
    "response_type": "key",
    "key_press": "ArrowUp",
    "response": "ArrowUp",
    "avg_frame_time": 16.654887218045047,
    "center_x": 399.6296578604845,
    "center_y": 224.81483069630593,
    "trial_type": "psychophysics",
    "trial_index": 66,
    "plugin_version": "4.0.0",
    "time_elapsed": 176665
  },
  {
    "rt": null,
    "response_type": "key",
    "key_press": null,
    "response": null,
    "avg_frame_time": 16.662068965517644,
    "center_x": 399.6296578604845,
    "center_y": 224.81483069630593,
    "trial_type": "psychophysics",
    "trial_index": 67,
    "plugin_version": "4.0.0",
    "time_elapsed": 177172
  },
  {
    "image1": "https://jatos.mindprobe.eu/publix/a0e4d26b-79fc-41ad-bc4a-2e94e2822523/dist/b2b7faaf2a59bb4bdfcb862858551c57.webp",
    "image2": "https://jatos.mindprobe.eu/publix/a0e4d26b-79fc-41ad-bc4a-2e94e2822523/dist/afa6e6b610b3cab6c6b449a4e2dd4d02.webp",
    "grid_items": [
      {
        "letter": "G",
        "color": "black"
      },
      {
        "letter": "M",
        "color": "black"
      },
      {
        "letter": "B",
        "color": "black"
      },
      {
        "letter": "N",
        "color": "black"
      },
      {
        "letter": "",
        "color": "white"
      },
      {
        "letter": "",
        "color": "white"
      },
      {
        "letter": "",
        "color": "white"
      },
      {
        "letter": "",
        "color": "white"
      }
    ],
    "target": {
      "letter": "B",
      "color": "black"
    },
    "gaze_direction": "right",
    "grid_position": "left",
    "target_type": "valid",
    "block": "block-1",
    "face": "a",
    "window": {
      "dimensions": [
        800,
        1422
      ],
      "isFullscreen": "BODY"
    },
    "rt": 1474,
    "response_type": "key",
    "key_press": "ArrowDown",
    "response": "ArrowDown",
    "avg_frame_time": 16.65445205479454,
    "center_x": 399.6296578604845,
    "center_y": 224.81483069630593,
    "trial_type": "psychophysics",
    "trial_index": 68,
    "plugin_version": "4.0.0",
    "time_elapsed": 182060
  },
  {
    "rt": null,
    "response_type": "key",
    "key_press": null,
    "response": null,
    "avg_frame_time": 16.651724137930835,
    "center_x": 399.6296578604845,
    "center_y": 224.81483069630593,
    "trial_type": "psychophysics",
    "trial_index": 69,
    "plugin_version": "4.0.0",
    "time_elapsed": 182568
  },
  {
    "image1": "https://jatos.mindprobe.eu/publix/a0e4d26b-79fc-41ad-bc4a-2e94e2822523/dist/d429c5287be0e7ceba842a59a42841aa.webp",
    "image2": "https://jatos.mindprobe.eu/publix/a0e4d26b-79fc-41ad-bc4a-2e94e2822523/dist/7c19086664cedcdfc2bed264c3b04bfa.webp",
    "grid_items": [
      {
        "letter": "",
        "color": "white"
      },
      {
        "letter": "",
        "color": "white"
      },
      {
        "letter": "",
        "color": "white"
      },
      {
        "letter": "",
        "color": "white"
      },
      {
        "letter": "M",
        "color": "black"
      },
      {
        "letter": "G",
        "color": "black"
      },
      {
        "letter": "H",
        "color": "black"
      },
      {
        "letter": "B",
        "color": "black"
      }
    ],
    "target": {
      "letter": "H",
      "color": "black"
    },
    "gaze_direction": "left",
    "grid_position": "right",
    "target_type": "valid",
    "block": "block-1",
    "face": "f",
    "window": {
      "dimensions": [
        800,
        1422
      ],
      "isFullscreen": "BODY"
    },
    "rt": 888,
    "response_type": "key",
    "key_press": "ArrowUp",
    "response": "ArrowUp",
    "avg_frame_time": 16.652529182879423,
    "center_x": 399.6296578604845,
    "center_y": 224.81483069630593,
    "trial_type": "psychophysics",
    "trial_index": 70,
    "plugin_version": "4.0.0",
    "time_elapsed": 186878
  },
  {
    "rt": null,
    "response_type": "key",
    "key_press": null,
    "response": null,
    "avg_frame_time": 16.651724137931836,
    "center_x": 399.6296578604845,
    "center_y": 224.81483069630593,
    "trial_type": "psychophysics",
    "trial_index": 71,
    "plugin_version": "4.0.0",
    "time_elapsed": 187380
  },
  {
    "image1": "https://jatos.mindprobe.eu/publix/a0e4d26b-79fc-41ad-bc4a-2e94e2822523/dist/1d4fc1100b57f312ef6f7e81e8502a85.webp",
    "image2": "https://jatos.mindprobe.eu/publix/a0e4d26b-79fc-41ad-bc4a-2e94e2822523/dist/7aa52bcb2291ad2c1eab0a1c309e9ebe.webp",
    "grid_items": [
      {
        "letter": "",
        "color": "white"
      },
      {
        "letter": "",
        "color": "white"
      },
      {
        "letter": "",
        "color": "white"
      },
      {
        "letter": "",
        "color": "white"
      },
      {
        "letter": "K",
        "color": "black"
      },
      {
        "letter": "N",
        "color": "black"
      },
      {
        "letter": "B",
        "color": "black"
      },
      {
        "letter": "R",
        "color": "black"
      }
    ],
    "target": {
      "letter": "B",
      "color": "black"
    },
    "gaze_direction": "left",
    "grid_position": "right",
    "target_type": "valid",
    "block": "block-1",
    "face": "e",
    "window": {
      "dimensions": [
        800,
        1422
      ],
      "isFullscreen": "BODY"
    },
    "rt": 847,
    "response_type": "key",
    "key_press": "ArrowUp",
    "response": "ArrowUp",
    "avg_frame_time": 16.65472440944877,
    "center_x": 399.6296578604845,
    "center_y": 224.81483069630593,
    "trial_type": "psychophysics",
    "trial_index": 72,
    "plugin_version": "4.0.0",
    "time_elapsed": 191642
  },
  {
    "rt": null,
    "response_type": "key",
    "key_press": null,
    "response": null,
    "avg_frame_time": 16.661290322580644,
    "center_x": 399.6296578604845,
    "center_y": 224.81483069630593,
    "trial_type": "psychophysics",
    "trial_index": 73,
    "plugin_version": "4.0.0",
    "time_elapsed": 192162
  },
  {
    "image1": "https://jatos.mindprobe.eu/publix/a0e4d26b-79fc-41ad-bc4a-2e94e2822523/dist/40dece98c751976c5ae971fb799b576a.webp",
    "image2": "https://jatos.mindprobe.eu/publix/a0e4d26b-79fc-41ad-bc4a-2e94e2822523/dist/539bb0274850bc5c179b9239bd4821e4.webp",
    "grid_items": [
      {
        "letter": "S",
        "color": "black"
      },
      {
        "letter": "R",
        "color": "black"
      },
      {
        "letter": "G",
        "color": "black"
      },
      {
        "letter": "F",
        "color": "black"
      },
      {
        "letter": "",
        "color": "white"
      },
      {
        "letter": "",
        "color": "white"
      },
      {
        "letter": "",
        "color": "white"
      },
      {
        "letter": "",
        "color": "white"
      }
    ],
    "target": {
      "letter": "K",
      "color": "black"
    },
    "gaze_direction": "left",
    "grid_position": "left",
    "target_type": "invalid",
    "block": "block-1",
    "face": "b",
    "window": {
      "dimensions": [
        800,
        1422
      ],
      "isFullscreen": "BODY"
    },
    "rt": 971,
    "response_type": "key",
    "key_press": "ArrowDown",
    "response": "ArrowDown",
    "avg_frame_time": 16.654580152671755,
    "center_x": 399.6296578604845,
    "center_y": 224.81483069630593,
    "trial_type": "psychophysics",
    "trial_index": 74,
    "plugin_version": "4.0.0",
    "time_elapsed": 196562
  },
  {
    "rt": null,
    "response_type": "key",
    "key_press": null,
    "response": null,
    "avg_frame_time": 16.66333333333411,
    "center_x": 399.6296578604845,
    "center_y": 224.81483069630593,
    "trial_type": "psychophysics",
    "trial_index": 75,
    "plugin_version": "4.0.0",
    "time_elapsed": 197074
  },
  {
    "image1": "https://jatos.mindprobe.eu/publix/a0e4d26b-79fc-41ad-bc4a-2e94e2822523/dist/d429c5287be0e7ceba842a59a42841aa.webp",
    "image2": "https://jatos.mindprobe.eu/publix/a0e4d26b-79fc-41ad-bc4a-2e94e2822523/dist/9e284198aaef8c500a1145e962e8a4d0.webp",
    "grid_items": [
      {
        "letter": "T",
        "color": "black"
      },
      {
        "letter": "R",
        "color": "black"
      },
      {
        "letter": "H",
        "color": "black"
      },
      {
        "letter": "D",
        "color": "black"
      },
      {
        "letter": "",
        "color": "white"
      },
      {
        "letter": "",
        "color": "white"
      },
      {
        "letter": "",
        "color": "white"
      },
      {
        "letter": "",
        "color": "white"
      }
    ],
    "target": {
      "letter": "H",
      "color": "black"
    },
    "gaze_direction": "right",
    "grid_position": "left",
    "target_type": "valid",
    "block": "block-1",
    "face": "f",
    "window": {
      "dimensions": [
        800,
        1422
      ],
      "isFullscreen": "BODY"
    },
    "rt": 907,
    "response_type": "key",
    "key_press": "ArrowDown",
    "response": "ArrowDown",
    "avg_frame_time": 16.6529182879377,
    "center_x": 399.6296578604845,
    "center_y": 224.81483069630593,
    "trial_type": "psychophysics",
    "trial_index": 76,
    "plugin_version": "4.0.0",
    "time_elapsed": 201402
  },
  {
    "rt": null,
    "response_type": "key",
    "key_press": null,
    "response": null,
    "avg_frame_time": 16.673333333332753,
    "center_x": 399.6296578604845,
    "center_y": 224.81483069630593,
    "trial_type": "psychophysics",
    "trial_index": 77,
    "plugin_version": "4.0.0",
    "time_elapsed": 201913
  },
  {
    "image1": "https://jatos.mindprobe.eu/publix/a0e4d26b-79fc-41ad-bc4a-2e94e2822523/dist/40dece98c751976c5ae971fb799b576a.webp",
    "image2": "https://jatos.mindprobe.eu/publix/a0e4d26b-79fc-41ad-bc4a-2e94e2822523/dist/a0953907ed0c4f557cc32072c240bdb4.webp",
    "grid_items": [
      {
        "letter": "",
        "color": "white"
      },
      {
        "letter": "",
        "color": "white"
      },
      {
        "letter": "",
        "color": "white"
      },
      {
        "letter": "",
        "color": "white"
      },
      {
        "letter": "K",
        "color": "black"
      },
      {
        "letter": "P",
        "color": "black"
      },
      {
        "letter": "D",
        "color": "black"
      },
      {
        "letter": "H",
        "color": "black"
      }
    ],
    "target": {
      "letter": "K",
      "color": "black"
    },
    "gaze_direction": "right",
    "grid_position": "right",
    "target_type": "valid",
    "block": "block-1",
    "face": "b",
    "window": {
      "dimensions": [
        800,
        1422
      ],
      "isFullscreen": "BODY"
    },
    "rt": 1046,
    "response_type": "key",
    "key_press": "ArrowDown",
    "response": "ArrowDown",
    "avg_frame_time": 16.65451127819551,
    "center_x": 399.6296578604845,
    "center_y": 224.81483069630593,
    "trial_type": "psychophysics",
    "trial_index": 78,
    "plugin_version": "4.0.0",
    "time_elapsed": 206379
  },
  {
    "rt": null,
    "response_type": "key",
    "key_press": null,
    "response": null,
    "avg_frame_time": 16.656666666667054,
    "center_x": 399.6296578604845,
    "center_y": 224.81483069630593,
    "trial_type": "psychophysics",
    "trial_index": 79,
    "plugin_version": "4.0.0",
    "time_elapsed": 206883
  },
  {
    "image1": "https://jatos.mindprobe.eu/publix/a0e4d26b-79fc-41ad-bc4a-2e94e2822523/dist/40dece98c751976c5ae971fb799b576a.webp",
    "image2": "https://jatos.mindprobe.eu/publix/a0e4d26b-79fc-41ad-bc4a-2e94e2822523/dist/539bb0274850bc5c179b9239bd4821e4.webp",
    "grid_items": [
      {
        "letter": "",
        "color": "white"
      },
      {
        "letter": "",
        "color": "white"
      },
      {
        "letter": "",
        "color": "white"
      },
      {
        "letter": "",
        "color": "white"
      },
      {
        "letter": "K",
        "color": "black"
      },
      {
        "letter": "D",
        "color": "black"
      },
      {
        "letter": "L",
        "color": "black"
      },
      {
        "letter": "M",
        "color": "black"
      }
    ],
    "target": {
      "letter": "D",
      "color": "black"
    },
    "gaze_direction": "left",
    "grid_position": "right",
    "target_type": "valid",
    "block": "block-1",
    "face": "b",
    "window": {
      "dimensions": [
        800,
        1422
      ],
      "isFullscreen": "BODY"
    },
    "rt": 1072,
    "response_type": "key",
    "key_press": "ArrowDown",
    "response": "ArrowDown",
    "avg_frame_time": 16.651119402985074,
    "center_x": 399.6296578604845,
    "center_y": 224.81483069630593,
    "trial_type": "psychophysics",
    "trial_index": 80,
    "plugin_version": "4.0.0",
    "time_elapsed": 211378
  },
  {
    "rt": null,
    "response_type": "key",
    "key_press": null,
    "response": null,
    "avg_frame_time": 16.651724137930835,
    "center_x": 399.6296578604845,
    "center_y": 224.81483069630593,
    "trial_type": "psychophysics",
    "trial_index": 81,
    "plugin_version": "4.0.0",
    "time_elapsed": 211884
  },
  {
    "image1": "https://jatos.mindprobe.eu/publix/a0e4d26b-79fc-41ad-bc4a-2e94e2822523/dist/1d4fc1100b57f312ef6f7e81e8502a85.webp",
    "image2": "https://jatos.mindprobe.eu/publix/a0e4d26b-79fc-41ad-bc4a-2e94e2822523/dist/7aa52bcb2291ad2c1eab0a1c309e9ebe.webp",
    "grid_items": [
      {
        "letter": "",
        "color": "white"
      },
      {
        "letter": "",
        "color": "white"
      },
      {
        "letter": "",
        "color": "white"
      },
      {
        "letter": "",
        "color": "white"
      },
      {
        "letter": "H",
        "color": "black"
      },
      {
        "letter": "F",
        "color": "black"
      },
      {
        "letter": "M",
        "color": "black"
      },
      {
        "letter": "N",
        "color": "black"
      }
    ],
    "target": {
      "letter": "D",
      "color": "black"
    },
    "gaze_direction": "left",
    "grid_position": "right",
    "target_type": "invalid",
    "block": "block-1",
    "face": "e",
    "window": {
      "dimensions": [
        800,
        1422
      ],
      "isFullscreen": "BODY"
    },
    "rt": 1382,
    "response_type": "key",
    "key_press": "ArrowDown",
    "response": "ArrowDown",
    "avg_frame_time": 16.654006968641053,
    "center_x": 399.6296578604845,
    "center_y": 224.81483069630593,
    "trial_type": "psychophysics",
    "trial_index": 82,
    "plugin_version": "4.0.0",
    "time_elapsed": 216693
  },
  {
    "rt": null,
    "response_type": "key",
    "key_press": null,
    "response": null,
    "avg_frame_time": 16.644827586206294,
    "center_x": 399.6296578604845,
    "center_y": 224.81483069630593,
    "trial_type": "psychophysics",
    "trial_index": 83,
    "plugin_version": "4.0.0",
    "time_elapsed": 217201
  },
  {
    "image1": "https://jatos.mindprobe.eu/publix/a0e4d26b-79fc-41ad-bc4a-2e94e2822523/dist/d429c5287be0e7ceba842a59a42841aa.webp",
    "image2": "https://jatos.mindprobe.eu/publix/a0e4d26b-79fc-41ad-bc4a-2e94e2822523/dist/9e284198aaef8c500a1145e962e8a4d0.webp",
    "grid_items": [
      {
        "letter": "",
        "color": "white"
      },
      {
        "letter": "",
        "color": "white"
      },
      {
        "letter": "",
        "color": "white"
      },
      {
        "letter": "",
        "color": "white"
      },
      {
        "letter": "C",
        "color": "black"
      },
      {
        "letter": "R",
        "color": "black"
      },
      {
        "letter": "S",
        "color": "black"
      },
      {
        "letter": "B",
        "color": "black"
      }
    ],
    "target": {
      "letter": "K",
      "color": "black"
    },
    "gaze_direction": "right",
    "grid_position": "right",
    "target_type": "invalid",
    "block": "block-1",
    "face": "f",
    "window": {
      "dimensions": [
        800,
        1422
      ],
      "isFullscreen": "BODY"
    },
    "rt": 1096,
    "response_type": "key",
    "key_press": "ArrowDown",
    "response": "ArrowDown",
    "avg_frame_time": 16.653159851301158,
    "center_x": 399.6296578604845,
    "center_y": 224.81483069630593,
    "trial_type": "psychophysics",
    "trial_index": 84,
    "plugin_version": "4.0.0",
    "time_elapsed": 221717
  },
  {
    "rt": null,
    "response_type": "key",
    "key_press": null,
    "response": null,
    "avg_frame_time": 16.65,
    "center_x": 399.6296578604845,
    "center_y": 224.81483069630593,
    "trial_type": "psychophysics",
    "trial_index": 85,
    "plugin_version": "4.0.0",
    "time_elapsed": 222220
  },
  {
    "image1": "https://jatos.mindprobe.eu/publix/a0e4d26b-79fc-41ad-bc4a-2e94e2822523/dist/40dece98c751976c5ae971fb799b576a.webp",
    "image2": "https://jatos.mindprobe.eu/publix/a0e4d26b-79fc-41ad-bc4a-2e94e2822523/dist/539bb0274850bc5c179b9239bd4821e4.webp",
    "grid_items": [
      {
        "letter": "",
        "color": "white"
      },
      {
        "letter": "",
        "color": "white"
      },
      {
        "letter": "",
        "color": "white"
      },
      {
        "letter": "",
        "color": "white"
      },
      {
        "letter": "R",
        "color": "black"
      },
      {
        "letter": "P",
        "color": "black"
      },
      {
        "letter": "G",
        "color": "black"
      },
      {
        "letter": "K",
        "color": "black"
      }
    ],
    "target": {
      "letter": "L",
      "color": "black"
    },
    "gaze_direction": "left",
    "grid_position": "right",
    "target_type": "invalid",
    "block": "block-1",
    "face": "b",
    "window": {
      "dimensions": [
        800,
        1422
      ],
      "isFullscreen": "BODY"
    },
    "rt": 1447,
    "response_type": "key",
    "key_press": "ArrowUp",
    "response": "ArrowUp",
    "avg_frame_time": 16.65448275862075,
    "center_x": 399.6296578604845,
    "center_y": 224.81483069630593,
    "trial_type": "psychophysics",
    "trial_index": 86,
    "plugin_version": "4.0.0",
    "time_elapsed": 227096
  },
  {
    "rt": null,
    "response_type": "key",
    "key_press": null,
    "response": null,
    "avg_frame_time": 16.66333333333411,
    "center_x": 399.6296578604845,
    "center_y": 224.81483069630593,
    "trial_type": "psychophysics",
    "trial_index": 87,
    "plugin_version": "4.0.0",
    "time_elapsed": 227599
  },
  {
    "image1": "https://jatos.mindprobe.eu/publix/a0e4d26b-79fc-41ad-bc4a-2e94e2822523/dist/36ce3cf01c34ab194e87cdb81ee9890f.webp",
    "image2": "https://jatos.mindprobe.eu/publix/a0e4d26b-79fc-41ad-bc4a-2e94e2822523/dist/7abc9556bd3afc91e874c19e0dfb4358.webp",
    "grid_items": [
      {
        "letter": "",
        "color": "white"
      },
      {
        "letter": "",
        "color": "white"
      },
      {
        "letter": "",
        "color": "white"
      },
      {
        "letter": "",
        "color": "white"
      },
      {
        "letter": "R",
        "color": "black"
      },
      {
        "letter": "T",
        "color": "black"
      },
      {
        "letter": "S",
        "color": "black"
      },
      {
        "letter": "N",
        "color": "black"
      }
    ],
    "target": {
      "letter": "M",
      "color": "black"
    },
    "gaze_direction": "right",
    "grid_position": "right",
    "target_type": "invalid",
    "block": "block-1",
    "face": "c",
    "window": {
      "dimensions": [
        800,
        1422
      ],
      "isFullscreen": "BODY"
    },
    "rt": 973,
    "response_type": "key",
    "key_press": "ArrowDown",
    "response": "ArrowDown",
    "avg_frame_time": 16.65496183206109,
    "center_x": 399.6296578604845,
    "center_y": 224.81483069630593,
    "trial_type": "psychophysics",
    "trial_index": 88,
    "plugin_version": "4.0.0",
    "time_elapsed": 232003
  },
  {
    "rt": null,
    "response_type": "key",
    "key_press": null,
    "response": null,
    "avg_frame_time": 16.655172413793103,
    "center_x": 399.6296578604845,
    "center_y": 224.81483069630593,
    "trial_type": "psychophysics",
    "trial_index": 89,
    "plugin_version": "4.0.0",
    "time_elapsed": 232508
  },
  {
    "image1": "https://jatos.mindprobe.eu/publix/a0e4d26b-79fc-41ad-bc4a-2e94e2822523/dist/1d4fc1100b57f312ef6f7e81e8502a85.webp",
    "image2": "https://jatos.mindprobe.eu/publix/a0e4d26b-79fc-41ad-bc4a-2e94e2822523/dist/f133a138299afe57854b3487f1de2960.webp",
    "grid_items": [
      {
        "letter": "",
        "color": "white"
      },
      {
        "letter": "",
        "color": "white"
      },
      {
        "letter": "",
        "color": "white"
      },
      {
        "letter": "",
        "color": "white"
      },
      {
        "letter": "M",
        "color": "black"
      },
      {
        "letter": "P",
        "color": "black"
      },
      {
        "letter": "L",
        "color": "black"
      },
      {
        "letter": "S",
        "color": "black"
      }
    ],
    "target": {
      "letter": "S",
      "color": "black"
    },
    "gaze_direction": "right",
    "grid_position": "right",
    "target_type": "valid",
    "block": "block-1",
    "face": "e",
    "window": {
      "dimensions": [
        800,
        1422
      ],
      "isFullscreen": "BODY"
    },
    "rt": 833,
    "response_type": "key",
    "key_press": "ArrowUp",
    "response": "ArrowUp",
    "avg_frame_time": 16.6551181102362,
    "center_x": 399.6296578604845,
    "center_y": 224.81483069630593,
    "trial_type": "psychophysics",
    "trial_index": 90,
    "plugin_version": "4.0.0",
    "time_elapsed": 236774
  },
  {
    "rt": null,
    "response_type": "key",
    "key_press": null,
    "response": null,
    "avg_frame_time": 16.666666666666668,
    "center_x": 399.6296578604845,
    "center_y": 224.81483069630593,
    "trial_type": "psychophysics",
    "trial_index": 91,
    "plugin_version": "4.0.0",
    "time_elapsed": 237284
  },
  {
    "image1": "https://jatos.mindprobe.eu/publix/a0e4d26b-79fc-41ad-bc4a-2e94e2822523/dist/40dece98c751976c5ae971fb799b576a.webp",
    "image2": "https://jatos.mindprobe.eu/publix/a0e4d26b-79fc-41ad-bc4a-2e94e2822523/dist/a0953907ed0c4f557cc32072c240bdb4.webp",
    "grid_items": [
      {
        "letter": "",
        "color": "white"
      },
      {
        "letter": "",
        "color": "white"
      },
      {
        "letter": "",
        "color": "white"
      },
      {
        "letter": "",
        "color": "white"
      },
      {
        "letter": "S",
        "color": "black"
      },
      {
        "letter": "D",
        "color": "black"
      },
      {
        "letter": "R",
        "color": "black"
      },
      {
        "letter": "G",
        "color": "black"
      }
    ],
    "target": {
      "letter": "P",
      "color": "black"
    },
    "gaze_direction": "right",
    "grid_position": "right",
    "target_type": "invalid",
    "block": "block-1",
    "face": "b",
    "window": {
      "dimensions": [
        800,
        1422
      ],
      "isFullscreen": "BODY"
    },
    "rt": 1280,
    "response_type": "key",
    "key_press": "ArrowDown",
    "response": "ArrowDown",
    "avg_frame_time": 16.65338078291817,
    "center_x": 399.6296578604845,
    "center_y": 224.81483069630593,
    "trial_type": "psychophysics",
    "trial_index": 92,
    "plugin_version": "4.0.0",
    "time_elapsed": 241991
  },
  {
    "rt": null,
    "response_type": "key",
    "key_press": null,
    "response": null,
    "avg_frame_time": 16.658620689655372,
    "center_x": 399.6296578604845,
    "center_y": 224.81483069630593,
    "trial_type": "psychophysics",
    "trial_index": 93,
    "plugin_version": "4.0.0",
    "time_elapsed": 242499
  },
  {
    "image1": "https://jatos.mindprobe.eu/publix/a0e4d26b-79fc-41ad-bc4a-2e94e2822523/dist/d429c5287be0e7ceba842a59a42841aa.webp",
    "image2": "https://jatos.mindprobe.eu/publix/a0e4d26b-79fc-41ad-bc4a-2e94e2822523/dist/7c19086664cedcdfc2bed264c3b04bfa.webp",
    "grid_items": [
      {
        "letter": "M",
        "color": "black"
      },
      {
        "letter": "K",
        "color": "black"
      },
      {
        "letter": "R",
        "color": "black"
      },
      {
        "letter": "G",
        "color": "black"
      },
      {
        "letter": "",
        "color": "white"
      },
      {
        "letter": "",
        "color": "white"
      },
      {
        "letter": "",
        "color": "white"
      },
      {
        "letter": "",
        "color": "white"
      }
    ],
    "target": {
      "letter": "N",
      "color": "black"
    },
    "gaze_direction": "left",
    "grid_position": "left",
    "target_type": "invalid",
    "block": "block-1",
    "face": "f",
    "window": {
      "dimensions": [
        800,
        1422
      ],
      "isFullscreen": "BODY"
    },
    "rt": 1066,
    "response_type": "key",
    "key_press": "ArrowUp",
    "response": "ArrowUp",
    "avg_frame_time": 16.652985074626866,
    "center_x": 399.6296578604845,
    "center_y": 224.81483069630593,
    "trial_type": "psychophysics",
    "trial_index": 94,
    "plugin_version": "4.0.0",
    "time_elapsed": 246988
  },
  {
    "rt": null,
    "response_type": "key",
    "key_press": null,
    "response": null,
    "avg_frame_time": 16.665517241379913,
    "center_x": 399.6296578604845,
    "center_y": 224.81483069630593,
    "trial_type": "psychophysics",
    "trial_index": 95,
    "plugin_version": "4.0.0",
    "time_elapsed": 247498
  },
  {
    "image1": "https://jatos.mindprobe.eu/publix/a0e4d26b-79fc-41ad-bc4a-2e94e2822523/dist/0738b36f5c5284a1fbe6de5047928226.webp",
    "image2": "https://jatos.mindprobe.eu/publix/a0e4d26b-79fc-41ad-bc4a-2e94e2822523/dist/c2c6af7a7e254bf30109d9388b53b5d8.webp",
    "grid_items": [
      {
        "letter": "L",
        "color": "black"
      },
      {
        "letter": "N",
        "color": "black"
      },
      {
        "letter": "G",
        "color": "black"
      },
      {
        "letter": "M",
        "color": "black"
      },
      {
        "letter": "",
        "color": "white"
      },
      {
        "letter": "",
        "color": "white"
      },
      {
        "letter": "",
        "color": "white"
      },
      {
        "letter": "",
        "color": "white"
      }
    ],
    "target": {
      "letter": "H",
      "color": "black"
    },
    "gaze_direction": "left",
    "grid_position": "left",
    "target_type": "invalid",
    "block": "block-1",
    "face": "d",
    "window": {
      "dimensions": [
        800,
        1422
      ],
      "isFullscreen": "BODY"
    },
    "rt": 1011,
    "response_type": "key",
    "key_press": "ArrowDown",
    "response": "ArrowDown",
    "avg_frame_time": 16.653207547169725,
    "center_x": 399.6296578604845,
    "center_y": 224.81483069630593,
    "trial_type": "psychophysics",
    "trial_index": 96,
    "plugin_version": "4.0.0",
    "time_elapsed": 251941
  },
  {
    "rt": null,
    "response_type": "key",
    "key_press": null,
    "response": null,
    "avg_frame_time": 16.66333333333314,
    "center_x": 399.6296578604845,
    "center_y": 224.81483069630593,
    "trial_type": "psychophysics",
    "trial_index": 97,
    "plugin_version": "4.0.0",
    "time_elapsed": 252457
  },
  {
    "image1": "https://jatos.mindprobe.eu/publix/a0e4d26b-79fc-41ad-bc4a-2e94e2822523/dist/36ce3cf01c34ab194e87cdb81ee9890f.webp",
    "image2": "https://jatos.mindprobe.eu/publix/a0e4d26b-79fc-41ad-bc4a-2e94e2822523/dist/6ef25f867bb912257ed8a75458a113f3.webp",
    "grid_items": [
      {
        "letter": "M",
        "color": "black"
      },
      {
        "letter": "S",
        "color": "black"
      },
      {
        "letter": "G",
        "color": "black"
      },
      {
        "letter": "D",
        "color": "black"
      },
      {
        "letter": "",
        "color": "white"
      },
      {
        "letter": "",
        "color": "white"
      },
      {
        "letter": "",
        "color": "white"
      },
      {
        "letter": "",
        "color": "white"
      }
    ],
    "target": {
      "letter": "D",
      "color": "black"
    },
    "gaze_direction": "left",
    "grid_position": "left",
    "target_type": "valid",
    "block": "block-1",
    "face": "c",
    "window": {
      "dimensions": [
        800,
        1422
      ],
      "isFullscreen": "BODY"
    },
    "rt": 1718,
    "response_type": "key",
    "key_press": "ArrowUp",
    "response": "ArrowUp",
    "avg_frame_time": 16.655048859934872,
    "center_x": 399.6296578604845,
    "center_y": 224.81483069630593,
    "trial_type": "psychophysics",
    "trial_index": 98,
    "plugin_version": "4.0.0",
    "time_elapsed": 257595
  },
  {
    "rt": null,
    "response_type": "key",
    "key_press": null,
    "response": null,
    "avg_frame_time": 16.637931034482758,
    "center_x": 399.6296578604845,
    "center_y": 224.81483069630593,
    "trial_type": "psychophysics",
    "trial_index": 99,
    "plugin_version": "4.0.0",
    "time_elapsed": 258103
  },
  {
    "image1": "https://jatos.mindprobe.eu/publix/a0e4d26b-79fc-41ad-bc4a-2e94e2822523/dist/1d4fc1100b57f312ef6f7e81e8502a85.webp",
    "image2": "https://jatos.mindprobe.eu/publix/a0e4d26b-79fc-41ad-bc4a-2e94e2822523/dist/f133a138299afe57854b3487f1de2960.webp",
    "grid_items": [
      {
        "letter": "P",
        "color": "black"
      },
      {
        "letter": "L",
        "color": "black"
      },
      {
        "letter": "T",
        "color": "black"
      },
      {
        "letter": "G",
        "color": "black"
      },
      {
        "letter": "",
        "color": "white"
      },
      {
        "letter": "",
        "color": "white"
      },
      {
        "letter": "",
        "color": "white"
      },
      {
        "letter": "",
        "color": "white"
      }
    ],
    "target": {
      "letter": "G",
      "color": "black"
    },
    "gaze_direction": "right",
    "grid_position": "left",
    "target_type": "valid",
    "block": "block-1",
    "face": "e",
    "window": {
      "dimensions": [
        800,
        1422
      ],
      "isFullscreen": "BODY"
    },
    "rt": 740,
    "response_type": "key",
    "key_press": "ArrowDown",
    "response": "ArrowDown",
    "avg_frame_time": 16.65341365461852,
    "center_x": 399.6296578604845,
    "center_y": 224.81483069630593,
    "trial_type": "psychophysics",
    "trial_index": 100,
    "plugin_version": "4.0.0",
    "time_elapsed": 262271
  },
  {
    "rt": null,
    "response_type": "key",
    "key_press": null,
    "response": null,
    "avg_frame_time": 16.655172413793103,
    "center_x": 399.6296578604845,
    "center_y": 224.81483069630593,
    "trial_type": "psychophysics",
    "trial_index": 101,
    "plugin_version": "4.0.0",
    "time_elapsed": 262779
  },
  {
    "image1": "https://jatos.mindprobe.eu/publix/a0e4d26b-79fc-41ad-bc4a-2e94e2822523/dist/40dece98c751976c5ae971fb799b576a.webp",
    "image2": "https://jatos.mindprobe.eu/publix/a0e4d26b-79fc-41ad-bc4a-2e94e2822523/dist/a0953907ed0c4f557cc32072c240bdb4.webp",
    "grid_items": [
      {
        "letter": "P",
        "color": "black"
      },
      {
        "letter": "D",
        "color": "black"
      },
      {
        "letter": "C",
        "color": "black"
      },
      {
        "letter": "F",
        "color": "black"
      },
      {
        "letter": "",
        "color": "white"
      },
      {
        "letter": "",
        "color": "white"
      },
      {
        "letter": "",
        "color": "white"
      },
      {
        "letter": "",
        "color": "white"
      }
    ],
    "target": {
      "letter": "R",
      "color": "black"
    },
    "gaze_direction": "right",
    "grid_position": "left",
    "target_type": "invalid",
    "block": "block-1",
    "face": "b",
    "window": {
      "dimensions": [
        800,
        1422
      ],
      "isFullscreen": "BODY"
    },
    "rt": 931,
    "response_type": "key",
    "key_press": "ArrowDown",
    "response": "ArrowDown",
    "avg_frame_time": 16.65269230769235,
    "center_x": 399.6296578604845,
    "center_y": 224.81483069630593,
    "trial_type": "psychophysics",
    "trial_index": 102,
    "plugin_version": "4.0.0",
    "time_elapsed": 267142
  },
  {
    "rt": null,
    "response_type": "key",
    "key_press": null,
    "response": null,
    "avg_frame_time": 16.668965517240174,
    "center_x": 399.6296578604845,
    "center_y": 224.81483069630593,
    "trial_type": "psychophysics",
    "trial_index": 103,
    "plugin_version": "4.0.0",
    "time_elapsed": 267648
  },
  {
    "image1": "https://jatos.mindprobe.eu/publix/a0e4d26b-79fc-41ad-bc4a-2e94e2822523/dist/b2b7faaf2a59bb4bdfcb862858551c57.webp",
    "image2": "https://jatos.mindprobe.eu/publix/a0e4d26b-79fc-41ad-bc4a-2e94e2822523/dist/a2b978bad27da55c204371f73357f1d7.webp",
    "grid_items": [
      {
        "letter": "R",
        "color": "black"
      },
      {
        "letter": "B",
        "color": "black"
      },
      {
        "letter": "K",
        "color": "black"
      },
      {
        "letter": "D",
        "color": "black"
      },
      {
        "letter": "",
        "color": "white"
      },
      {
        "letter": "",
        "color": "white"
      },
      {
        "letter": "",
        "color": "white"
      },
      {
        "letter": "",
        "color": "white"
      }
    ],
    "target": {
      "letter": "L",
      "color": "black"
    },
    "gaze_direction": "left",
    "grid_position": "left",
    "target_type": "invalid",
    "block": "block-1",
    "face": "a",
    "window": {
      "dimensions": [
        800,
        1422
      ],
      "isFullscreen": "BODY"
    },
    "rt": 943,
    "response_type": "key",
    "key_press": "ArrowDown",
    "response": "ArrowDown",
    "avg_frame_time": 16.656321839080416,
    "center_x": 399.6296578604845,
    "center_y": 224.81483069630593,
    "trial_type": "psychophysics",
    "trial_index": 104,
    "plugin_version": "4.0.0",
    "time_elapsed": 272020
  },
  {
    "rt": null,
    "response_type": "key",
    "key_press": null,
    "response": null,
    "avg_frame_time": 16.662068965515637,
    "center_x": 399.6296578604845,
    "center_y": 224.81483069630593,
    "trial_type": "psychophysics",
    "trial_index": 105,
    "plugin_version": "4.0.0",
    "time_elapsed": 272527
  },
  {
    "image1": "https://jatos.mindprobe.eu/publix/a0e4d26b-79fc-41ad-bc4a-2e94e2822523/dist/0738b36f5c5284a1fbe6de5047928226.webp",
    "image2": "https://jatos.mindprobe.eu/publix/a0e4d26b-79fc-41ad-bc4a-2e94e2822523/dist/48e5157934b56d46aee0926365abe09d.webp",
    "grid_items": [
      {
        "letter": "C",
        "color": "black"
      },
      {
        "letter": "T",
        "color": "black"
      },
      {
        "letter": "G",
        "color": "black"
      },
      {
        "letter": "L",
        "color": "black"
      },
      {
        "letter": "",
        "color": "white"
      },
      {
        "letter": "",
        "color": "white"
      },
      {
        "letter": "",
        "color": "white"
      },
      {
        "letter": "",
        "color": "white"
      }
    ],
    "target": {
      "letter": "T",
      "color": "black"
    },
    "gaze_direction": "right",
    "grid_position": "left",
    "target_type": "valid",
    "block": "block-1",
    "face": "d",
    "window": {
      "dimensions": [
        800,
        1422
      ],
      "isFullscreen": "BODY"
    },
    "rt": 771,
    "response_type": "key",
    "key_press": "ArrowDown",
    "response": "ArrowDown",
    "avg_frame_time": 16.652589641434215,
    "center_x": 399.6296578604845,
    "center_y": 224.81483069630593,
    "trial_type": "psychophysics",
    "trial_index": 106,
    "plugin_version": "4.0.0",
    "time_elapsed": 276726
  },
  {
    "rt": null,
    "response_type": "key",
    "key_press": null,
    "response": null,
    "avg_frame_time": 16.655172413793103,
    "center_x": 399.6296578604845,
    "center_y": 224.81483069630593,
    "trial_type": "psychophysics",
    "trial_index": 107,
    "plugin_version": "4.0.0",
    "time_elapsed": 277231
  },
  {
    "image1": "https://jatos.mindprobe.eu/publix/a0e4d26b-79fc-41ad-bc4a-2e94e2822523/dist/d429c5287be0e7ceba842a59a42841aa.webp",
    "image2": "https://jatos.mindprobe.eu/publix/a0e4d26b-79fc-41ad-bc4a-2e94e2822523/dist/9e284198aaef8c500a1145e962e8a4d0.webp",
    "grid_items": [
      {
        "letter": "C",
        "color": "black"
      },
      {
        "letter": "S",
        "color": "black"
      },
      {
        "letter": "T",
        "color": "black"
      },
      {
        "letter": "N",
        "color": "black"
      },
      {
        "letter": "",
        "color": "white"
      },
      {
        "letter": "",
        "color": "white"
      },
      {
        "letter": "",
        "color": "white"
      },
      {
        "letter": "",
        "color": "white"
      }
    ],
    "target": {
      "letter": "K",
      "color": "black"
    },
    "gaze_direction": "right",
    "grid_position": "left",
    "target_type": "invalid",
    "block": "block-1",
    "face": "f",
    "window": {
      "dimensions": [
        800,
        1422
      ],
      "isFullscreen": "BODY"
    },
    "rt": 1165,
    "response_type": "key",
    "key_press": "ArrowDown",
    "response": "ArrowDown",
    "avg_frame_time": 16.654945054945014,
    "center_x": 399.6296578604845,
    "center_y": 224.81483069630593,
    "trial_type": "psychophysics",
    "trial_index": 108,
    "plugin_version": "4.0.0",
    "time_elapsed": 281820
  },
  {
    "rt": null,
    "response_type": "key",
    "key_press": null,
    "response": null,
    "avg_frame_time": 16.666666666666668,
    "center_x": 399.6296578604845,
    "center_y": 224.81483069630593,
    "trial_type": "psychophysics",
    "trial_index": 109,
    "plugin_version": "4.0.0",
    "time_elapsed": 282323
  },
  {
    "image1": "https://jatos.mindprobe.eu/publix/a0e4d26b-79fc-41ad-bc4a-2e94e2822523/dist/d429c5287be0e7ceba842a59a42841aa.webp",
    "image2": "https://jatos.mindprobe.eu/publix/a0e4d26b-79fc-41ad-bc4a-2e94e2822523/dist/7c19086664cedcdfc2bed264c3b04bfa.webp",
    "grid_items": [
      {
        "letter": "S",
        "color": "black"
      },
      {
        "letter": "H",
        "color": "black"
      },
      {
        "letter": "L",
        "color": "black"
      },
      {
        "letter": "B",
        "color": "black"
      },
      {
        "letter": "",
        "color": "white"
      },
      {
        "letter": "",
        "color": "white"
      },
      {
        "letter": "",
        "color": "white"
      },
      {
        "letter": "",
        "color": "white"
      }
    ],
    "target": {
      "letter": "S",
      "color": "black"
    },
    "gaze_direction": "left",
    "grid_position": "left",
    "target_type": "valid",
    "block": "block-1",
    "face": "f",
    "window": {
      "dimensions": [
        800,
        1422
      ],
      "isFullscreen": "BODY"
    },
    "rt": 1524,
    "response_type": "key",
    "key_press": "ArrowUp",
    "response": "ArrowUp",
    "avg_frame_time": 16.653898305084823,
    "center_x": 399.6296578604845,
    "center_y": 224.81483069630593,
    "trial_type": "psychophysics",
    "trial_index": 110,
    "plugin_version": "4.0.0",
    "time_elapsed": 287272
  },
  {
    "rt": null,
    "response_type": "key",
    "key_press": null,
    "response": null,
    "avg_frame_time": 16.651724137931836,
    "center_x": 399.6296578604845,
    "center_y": 224.81483069630593,
    "trial_type": "psychophysics",
    "trial_index": 111,
    "plugin_version": "4.0.0",
    "time_elapsed": 287781
  },
  {
    "image1": "https://jatos.mindprobe.eu/publix/a0e4d26b-79fc-41ad-bc4a-2e94e2822523/dist/1d4fc1100b57f312ef6f7e81e8502a85.webp",
    "image2": "https://jatos.mindprobe.eu/publix/a0e4d26b-79fc-41ad-bc4a-2e94e2822523/dist/f133a138299afe57854b3487f1de2960.webp",
    "grid_items": [
      {
        "letter": "S",
        "color": "black"
      },
      {
        "letter": "P",
        "color": "black"
      },
      {
        "letter": "N",
        "color": "black"
      },
      {
        "letter": "M",
        "color": "black"
      },
      {
        "letter": "",
        "color": "white"
      },
      {
        "letter": "",
        "color": "white"
      },
      {
        "letter": "",
        "color": "white"
      },
      {
        "letter": "",
        "color": "white"
      }
    ],
    "target": {
      "letter": "C",
      "color": "black"
    },
    "gaze_direction": "right",
    "grid_position": "left",
    "target_type": "invalid",
    "block": "block-1",
    "face": "e",
    "window": {
      "dimensions": [
        800,
        1422
      ],
      "isFullscreen": "BODY"
    },
    "rt": 800,
    "response_type": "key",
    "key_press": "ArrowDown",
    "response": "ArrowDown",
    "avg_frame_time": 16.65436507936494,
    "center_x": 399.6296578604845,
    "center_y": 224.81483069630593,
    "trial_type": "psychophysics",
    "trial_index": 112,
    "plugin_version": "4.0.0",
    "time_elapsed": 292004
  },
  {
    "rt": null,
    "response_type": "key",
    "key_press": null,
    "response": null,
    "avg_frame_time": 16.665517241378907,
    "center_x": 399.6296578604845,
    "center_y": 224.81483069630593,
    "trial_type": "psychophysics",
    "trial_index": 113,
    "plugin_version": "4.0.0",
    "time_elapsed": 292511
  },
  {
    "image1": "https://jatos.mindprobe.eu/publix/a0e4d26b-79fc-41ad-bc4a-2e94e2822523/dist/36ce3cf01c34ab194e87cdb81ee9890f.webp",
    "image2": "https://jatos.mindprobe.eu/publix/a0e4d26b-79fc-41ad-bc4a-2e94e2822523/dist/6ef25f867bb912257ed8a75458a113f3.webp",
    "grid_items": [
      {
        "letter": "B",
        "color": "black"
      },
      {
        "letter": "N",
        "color": "black"
      },
      {
        "letter": "P",
        "color": "black"
      },
      {
        "letter": "C",
        "color": "black"
      },
      {
        "letter": "",
        "color": "white"
      },
      {
        "letter": "",
        "color": "white"
      },
      {
        "letter": "",
        "color": "white"
      },
      {
        "letter": "",
        "color": "white"
      }
    ],
    "target": {
      "letter": "L",
      "color": "black"
    },
    "gaze_direction": "left",
    "grid_position": "left",
    "target_type": "invalid",
    "block": "block-1",
    "face": "c",
    "window": {
      "dimensions": [
        800,
        1422
      ],
      "isFullscreen": "BODY"
    },
    "rt": 916,
    "response_type": "key",
    "key_press": "ArrowDown",
    "response": "ArrowDown",
    "avg_frame_time": 16.655038759689923,
    "center_x": 399.6296578604845,
    "center_y": 224.81483069630593,
    "trial_type": "psychophysics",
    "trial_index": 114,
    "plugin_version": "4.0.0",
    "time_elapsed": 296857
  },
  {
    "rt": null,
    "response_type": "key",
    "key_press": null,
    "response": null,
    "avg_frame_time": 16.667741935484248,
    "center_x": 399.6296578604845,
