[
  {
    "success": true,
    "timeout": false,
    "failed_images": [],
    "failed_audio": [],
    "failed_video": [],
    "trial_type": "preload",
    "trial_index": 0,
    "plugin_version": "2.1.0",
    "time_elapsed": 492
  },
  {
    "rt": 7831,
    "response": " ",
    "trial_type": "html-keyboard-response",
    "trial_index": 1,
    "plugin_version": "2.1.0",
    "time_elapsed": 8328
  },
  {
    "image1": "https://jatos.mindprobe.eu/publix/32162063-2245-444d-9eeb-a91d750597cf/dist/d429c5287be0e7ceba842a59a42841aa.webp",
    "image2": "https://jatos.mindprobe.eu/publix/32162063-2245-444d-9eeb-a91d750597cf/dist/7c19086664cedcdfc2bed264c3b04bfa.webp",
    "grid_items": [
      {
        "letter": "N",
        "color": "black"
      },
      {
        "letter": "L",
        "color": "black"
      },
      {
        "letter": "M",
        "color": "black"
      },
      {
        "letter": "T",
        "color": "black"
      },
      {
        "letter": "",
        "color": "white"
      },
      {
        "letter": "",
        "color": "white"
      },
      {
        "letter": "",
        "color": "white"
      },
      {
        "letter": "",
        "color": "white"
      }
    ],
    "target": {
      "letter": "M",
      "color": "black"
    },
    "gaze_direction": "left",
    "grid_position": "left",
    "target_type": "valid",
    "block": "practice",
    "face": "f",
    "window": {
      "dimensions": [
        864,
        1536
      ],
      "isFullscreen": "BODY"
    },
    "rt": 1533,
    "response_type": "key",
    "key_press": "ArrowUp",
    "response": "ArrowUp",
    "avg_frame_time": 16.722711864406783,
    "center_x": 400,
    "center_y": 224.8,
    "trial_type": "psychophysics",
    "trial_index": 2,
    "plugin_version": "4.0.0",
    "time_elapsed": 13281
  },
  {
    "rt": null,
    "response_type": "key",
    "key_press": null,
    "response": null,
    "avg_frame_time": 16.665517241379284,
    "center_x": 400,
    "center_y": 224.8,
    "trial_type": "psychophysics",
    "trial_index": 3,
    "plugin_version": "4.0.0",
    "time_elapsed": 13785
  },
  {
    "image1": "https://jatos.mindprobe.eu/publix/32162063-2245-444d-9eeb-a91d750597cf/dist/d429c5287be0e7ceba842a59a42841aa.webp",
    "image2": "https://jatos.mindprobe.eu/publix/32162063-2245-444d-9eeb-a91d750597cf/dist/9e284198aaef8c500a1145e962e8a4d0.webp",
    "grid_items": [
      {
        "letter": "C",
        "color": "black"
      },
      {
        "letter": "P",
        "color": "black"
      },
      {
        "letter": "T",
        "color": "black"
      },
      {
        "letter": "D",
        "color": "black"
      },
      {
        "letter": "",
        "color": "white"
      },
      {
        "letter": "",
        "color": "white"
      },
      {
        "letter": "",
        "color": "white"
      },
      {
        "letter": "",
        "color": "white"
      }
    ],
    "target": {
      "letter": "R",
      "color": "black"
    },
    "gaze_direction": "right",
    "grid_position": "left",
    "target_type": "invalid",
    "block": "practice",
    "face": "f",
    "window": {
      "dimensions": [
        864,
        1536
      ],
      "isFullscreen": "BODY"
    },
    "rt": 1427,
    "response_type": "key",
    "key_press": "ArrowUp",
    "response": "ArrowUp",
    "avg_frame_time": 16.724390243902437,
    "center_x": 400,
    "center_y": 224.8,
    "trial_type": "psychophysics",
    "trial_index": 4,
    "plugin_version": "4.0.0",
    "time_elapsed": 18623
  },
  {
    "rt": null,
    "response_type": "key",
    "key_press": null,
    "response": null,
    "avg_frame_time": 16.666666666666668,
    "center_x": 400,
    "center_y": 224.8,
    "trial_type": "psychophysics",
    "trial_index": 5,
    "plugin_version": "4.0.0",
    "time_elapsed": 19129
  },
  {
    "image1": "https://jatos.mindprobe.eu/publix/32162063-2245-444d-9eeb-a91d750597cf/dist/b2b7faaf2a59bb4bdfcb862858551c57.webp",
    "image2": "https://jatos.mindprobe.eu/publix/32162063-2245-444d-9eeb-a91d750597cf/dist/afa6e6b610b3cab6c6b449a4e2dd4d02.webp",
    "grid_items": [
      {
        "letter": "K",
        "color": "black"
      },
      {
        "letter": "N",
        "color": "black"
      },
      {
        "letter": "G",
        "color": "black"
      },
      {
        "letter": "P",
        "color": "black"
      },
      {
        "letter": "",
        "color": "white"
      },
      {
        "letter": "",
        "color": "white"
      },
      {
        "letter": "",
        "color": "white"
      },
      {
        "letter": "",
        "color": "white"
      }
    ],
    "target": {
      "letter": "D",
      "color": "black"
    },
    "gaze_direction": "right",
    "grid_position": "left",
    "target_type": "invalid",
    "block": "practice",
    "face": "a",
    "window": {
      "dimensions": [
        864,
        1536
      ],
      "isFullscreen": "BODY"
    },
    "rt": 685,
    "response_type": "key",
    "key_press": "ArrowDown",
    "response": "ArrowDown",
    "avg_frame_time": 16.804132231404967,
    "center_x": 400,
    "center_y": 224.8,
    "trial_type": "psychophysics",
    "trial_index": 6,
    "plugin_version": "4.0.0",
    "time_elapsed": 23224
  },
  {
    "rt": null,
    "response_type": "key",
    "key_press": null,
    "response": null,
    "avg_frame_time": 16.66896551724143,
    "center_x": 400,
    "center_y": 224.8,
    "trial_type": "psychophysics",
    "trial_index": 7,
    "plugin_version": "4.0.0",
    "time_elapsed": 23726
  },
  {
    "image1": "https://jatos.mindprobe.eu/publix/32162063-2245-444d-9eeb-a91d750597cf/dist/0738b36f5c5284a1fbe6de5047928226.webp",
    "image2": "https://jatos.mindprobe.eu/publix/32162063-2245-444d-9eeb-a91d750597cf/dist/c2c6af7a7e254bf30109d9388b53b5d8.webp",
    "grid_items": [
      {
        "letter": "F",
        "color": "black"
      },
      {
        "letter": "R",
        "color": "black"
      },
      {
        "letter": "N",
        "color": "black"
      },
      {
        "letter": "B",
        "color": "black"
      },
      {
        "letter": "",
        "color": "white"
      },
      {
        "letter": "",
        "color": "white"
      },
      {
        "letter": "",
        "color": "white"
      },
      {
        "letter": "",
        "color": "white"
      }
    ],
    "target": {
      "letter": "H",
      "color": "black"
    },
    "gaze_direction": "left",
    "grid_position": "left",
    "target_type": "invalid",
    "block": "practice",
    "face": "d",
    "window": {
      "dimensions": [
        864,
        1536
      ],
      "isFullscreen": "BODY"
    },
    "rt": 812,
    "response_type": "key",
    "key_press": "ArrowDown",
    "response": "ArrowDown",
    "avg_frame_time": 16.799600000000005,
    "center_x": 400,
    "center_y": 224.8,
    "trial_type": "psychophysics",
    "trial_index": 8,
    "plugin_version": "4.0.0",
    "time_elapsed": 27948
  },
  {
    "rt": null,
    "response_type": "key",
    "key_press": null,
    "response": null,
    "avg_frame_time": 16.665517241379284,
    "center_x": 400,
    "center_y": 224.8,
    "trial_type": "psychophysics",
    "trial_index": 9,
    "plugin_version": "4.0.0",
    "time_elapsed": 28450
  },
  {
    "image1": "https://jatos.mindprobe.eu/publix/32162063-2245-444d-9eeb-a91d750597cf/dist/1d4fc1100b57f312ef6f7e81e8502a85.webp",
    "image2": "https://jatos.mindprobe.eu/publix/32162063-2245-444d-9eeb-a91d750597cf/dist/f133a138299afe57854b3487f1de2960.webp",
    "grid_items": [
      {
        "letter": "",
        "color": "white"
      },
      {
        "letter": "",
        "color": "white"
      },
      {
        "letter": "",
        "color": "white"
      },
      {
        "letter": "",
        "color": "white"
      },
      {
        "letter": "S",
        "color": "black"
      },
      {
        "letter": "P",
        "color": "black"
      },
      {
        "letter": "B",
        "color": "black"
      },
      {
        "letter": "N",
        "color": "black"
      }
    ],
    "target": {
      "letter": "P",
      "color": "black"
    },
    "gaze_direction": "right",
    "grid_position": "right",
    "target_type": "valid",
    "block": "practice",
    "face": "e",
    "window": {
      "dimensions": [
        864,
        1536
      ],
      "isFullscreen": "BODY"
    },
    "rt": 905,
    "response_type": "key",
    "key_press": "ArrowUp",
    "response": "ArrowUp",
    "avg_frame_time": 16.73164062500001,
    "center_x": 400,
    "center_y": 224.8,
    "trial_type": "psychophysics",
    "trial_index": 10,
    "plugin_version": "4.0.0",
    "time_elapsed": 32770
  },
  {
    "rt": null,
    "response_type": "key",
    "key_press": null,
    "response": null,
    "avg_frame_time": 16.662068965517392,
    "center_x": 400,
    "center_y": 224.8,
    "trial_type": "psychophysics",
    "trial_index": 11,
    "plugin_version": "4.0.0",
    "time_elapsed": 33274
  },
  {
    "image1": "https://jatos.mindprobe.eu/publix/32162063-2245-444d-9eeb-a91d750597cf/dist/36ce3cf01c34ab194e87cdb81ee9890f.webp",
    "image2": "https://jatos.mindprobe.eu/publix/32162063-2245-444d-9eeb-a91d750597cf/dist/7abc9556bd3afc91e874c19e0dfb4358.webp",
    "grid_items": [
      {
        "letter": "",
        "color": "white"
      },
      {
        "letter": "",
        "color": "white"
      },
      {
        "letter": "",
        "color": "white"
      },
      {
        "letter": "",
        "color": "white"
      },
      {
        "letter": "S",
        "color": "black"
      },
      {
        "letter": "R",
        "color": "black"
      },
      {
        "letter": "D",
        "color": "black"
      },
      {
        "letter": "K",
        "color": "black"
      }
    ],
    "target": {
      "letter": "F",
      "color": "black"
    },
    "gaze_direction": "right",
    "grid_position": "right",
    "target_type": "invalid",
    "block": "practice",
    "face": "c",
    "window": {
      "dimensions": [
        864,
        1536
      ],
      "isFullscreen": "BODY"
    },
    "rt": 736,
    "response_type": "key",
    "key_press": "ArrowDown",
    "response": "ArrowDown",
    "avg_frame_time": 16.80162601626018,
    "center_x": 400,
    "center_y": 224.8,
    "trial_type": "psychophysics",
    "trial_index": 12,
    "plugin_version": "4.0.0",
    "time_elapsed": 37428
  },
  {
    "rt": null,
    "response_type": "key",
    "key_press": null,
    "response": null,
    "avg_frame_time": 16.665517241379412,
    "center_x": 400,
    "center_y": 224.8,
    "trial_type": "psychophysics",
    "trial_index": 13,
    "plugin_version": "4.0.0",
    "time_elapsed": 37931
  },
  {
    "image1": "https://jatos.mindprobe.eu/publix/32162063-2245-444d-9eeb-a91d750597cf/dist/b2b7faaf2a59bb4bdfcb862858551c57.webp",
    "image2": "https://jatos.mindprobe.eu/publix/32162063-2245-444d-9eeb-a91d750597cf/dist/a2b978bad27da55c204371f73357f1d7.webp",
    "grid_items": [
      {
        "letter": "",
        "color": "white"
      },
      {
        "letter": "",
        "color": "white"
      },
      {
        "letter": "",
        "color": "white"
      },
      {
        "letter": "",
        "color": "white"
      },
      {
        "letter": "D",
        "color": "black"
      },
      {
        "letter": "G",
        "color": "black"
      },
      {
        "letter": "S",
        "color": "black"
      },
      {
        "letter": "R",
        "color": "black"
      }
    ],
    "target": {
      "letter": "R",
      "color": "black"
    },
    "gaze_direction": "left",
    "grid_position": "right",
    "target_type": "valid",
    "block": "practice",
    "face": "a",
    "window": {
      "dimensions": [
        864,
        1536
      ],
      "isFullscreen": "BODY"
    },
    "rt": 857,
    "response_type": "key",
    "key_press": "ArrowUp",
    "response": "ArrowUp",
    "avg_frame_time": 16.732015810276668,
    "center_x": 400,
    "center_y": 224.8,
    "trial_type": "psychophysics",
    "trial_index": 14,
    "plugin_version": "4.0.0",
    "time_elapsed": 42206
  },
  {
    "rt": null,
    "response_type": "key",
    "key_press": null,
    "response": null,
    "avg_frame_time": 16.666666666666668,
    "center_x": 400,
    "center_y": 224.8,
    "trial_type": "psychophysics",
    "trial_index": 15,
    "plugin_version": "4.0.0",
    "time_elapsed": 42710
  },
  {
    "image1": "https://jatos.mindprobe.eu/publix/32162063-2245-444d-9eeb-a91d750597cf/dist/0738b36f5c5284a1fbe6de5047928226.webp",
    "image2": "https://jatos.mindprobe.eu/publix/32162063-2245-444d-9eeb-a91d750597cf/dist/c2c6af7a7e254bf30109d9388b53b5d8.webp",
    "grid_items": [
      {
        "letter": "F",
        "color": "black"
      },
      {
        "letter": "B",
        "color": "black"
      },
      {
        "letter": "L",
        "color": "black"
      },
      {
        "letter": "G",
        "color": "black"
      },
      {
        "letter": "",
        "color": "white"
      },
      {
        "letter": "",
        "color": "white"
      },
      {
        "letter": "",
        "color": "white"
      },
      {
        "letter": "",
        "color": "white"
      }
    ],
    "target": {
      "letter": "F",
      "color": "black"
    },
    "gaze_direction": "left",
    "grid_position": "left",
    "target_type": "valid",
    "block": "practice",
    "face": "d",
    "window": {
      "dimensions": [
        864,
        1536
      ],
      "isFullscreen": "BODY"
    },
    "rt": 831,
    "response_type": "key",
    "key_press": "ArrowUp",
    "response": "ArrowUp",
    "avg_frame_time": 16.66600790513834,
    "center_x": 400,
    "center_y": 224.8,
    "trial_type": "psychophysics",
    "trial_index": 16,
    "plugin_version": "4.0.0",
    "time_elapsed": 46962
  },
  {
    "rt": null,
    "response_type": "key",
    "key_press": null,
    "response": null,
    "avg_frame_time": 16.665517241379412,
    "center_x": 400,
    "center_y": 224.8,
    "trial_type": "psychophysics",
    "trial_index": 17,
    "plugin_version": "4.0.0",
    "time_elapsed": 47466
  },
  {
    "image1": "https://jatos.mindprobe.eu/publix/32162063-2245-444d-9eeb-a91d750597cf/dist/1d4fc1100b57f312ef6f7e81e8502a85.webp",
    "image2": "https://jatos.mindprobe.eu/publix/32162063-2245-444d-9eeb-a91d750597cf/dist/7aa52bcb2291ad2c1eab0a1c309e9ebe.webp",
    "grid_items": [
      {
        "letter": "",
        "color": "white"
      },
      {
        "letter": "",
        "color": "white"
      },
      {
        "letter": "",
        "color": "white"
      },
      {
        "letter": "",
        "color": "white"
      },
      {
        "letter": "H",
        "color": "black"
      },
      {
        "letter": "T",
        "color": "black"
      },
      {
        "letter": "K",
        "color": "black"
      },
      {
        "letter": "F",
        "color": "black"
      }
    ],
    "target": {
      "letter": "P",
      "color": "black"
    },
    "gaze_direction": "left",
    "grid_position": "right",
    "target_type": "invalid",
    "block": "practice",
    "face": "e",
    "window": {
      "dimensions": [
        864,
        1536
      ],
      "isFullscreen": "BODY"
    },
    "rt": 562,
    "response_type": "key",
    "key_press": "ArrowDown",
    "response": "ArrowDown",
    "avg_frame_time": 16.736864406779635,
    "center_x": 400,
    "center_y": 224.8,
    "trial_type": "psychophysics",
    "trial_index": 18,
    "plugin_version": "4.0.0",
    "time_elapsed": 51451
  },
  {
    "rt": null,
    "response_type": "key",
    "key_press": null,
    "response": null,
    "avg_frame_time": 16.66551724137916,
    "center_x": 400,
    "center_y": 224.8,
    "trial_type": "psychophysics",
    "trial_index": 19,
    "plugin_version": "4.0.0",
    "time_elapsed": 51955
  },
  {
    "image1": "https://jatos.mindprobe.eu/publix/32162063-2245-444d-9eeb-a91d750597cf/dist/36ce3cf01c34ab194e87cdb81ee9890f.webp",
    "image2": "https://jatos.mindprobe.eu/publix/32162063-2245-444d-9eeb-a91d750597cf/dist/7abc9556bd3afc91e874c19e0dfb4358.webp",
    "grid_items": [
      {
        "letter": "S",
        "color": "black"
      },
      {
        "letter": "B",
        "color": "black"
      },
      {
        "letter": "R",
        "color": "black"
      },
      {
        "letter": "M",
        "color": "black"
      },
      {
        "letter": "",
        "color": "white"
      },
      {
        "letter": "",
        "color": "white"
      },
      {
        "letter": "",
        "color": "white"
      },
      {
        "letter": "",
        "color": "white"
      }
    ],
    "target": {
      "letter": "B",
      "color": "black"
    },
    "gaze_direction": "right",
    "grid_position": "left",
    "target_type": "valid",
    "block": "practice",
    "face": "c",
    "window": {
      "dimensions": [
        864,
        1536
      ],
      "isFullscreen": "BODY"
    },
    "rt": 1812,
    "response_type": "key",
    "key_press": "ArrowDown",
    "response": "ArrowDown",
    "avg_frame_time": 16.66602564102565,
    "center_x": 400,
    "center_y": 224.8,
    "trial_type": "psychophysics",
    "trial_index": 20,
    "plugin_version": "4.0.0",
    "time_elapsed": 57190
  },
  {
    "rt": null,
    "response_type": "key",
    "key_press": null,
    "response": null,
    "avg_frame_time": 16.666666666666668,
    "center_x": 400,
    "center_y": 224.8,
    "trial_type": "psychophysics",
    "trial_index": 21,
    "plugin_version": "4.0.0",
    "time_elapsed": 57695
  },
  {
    "image1": "https://jatos.mindprobe.eu/publix/32162063-2245-444d-9eeb-a91d750597cf/dist/40dece98c751976c5ae971fb799b576a.webp",
    "image2": "https://jatos.mindprobe.eu/publix/32162063-2245-444d-9eeb-a91d750597cf/dist/a0953907ed0c4f557cc32072c240bdb4.webp",
    "grid_items": [
      {
        "letter": "",
        "color": "white"
      },
      {
        "letter": "",
        "color": "white"
      },
      {
        "letter": "",
        "color": "white"
      },
      {
        "letter": "",
        "color": "white"
      },
      {
        "letter": "B",
        "color": "black"
      },
      {
        "letter": "R",
        "color": "black"
      },
      {
        "letter": "M",
        "color": "black"
      },
      {
        "letter": "S",
        "color": "black"
      }
    ],
    "target": {
      "letter": "L",
      "color": "black"
    },
    "gaze_direction": "right",
    "grid_position": "right",
    "target_type": "invalid",
    "block": "practice",
    "face": "b",
    "window": {
      "dimensions": [
        864,
        1536
      ],
      "isFullscreen": "BODY"
    },
    "rt": 740,
    "response_type": "key",
    "key_press": "ArrowDown",
    "response": "ArrowDown",
    "avg_frame_time": 16.80244897959183,
    "center_x": 400,
    "center_y": 224.8,
    "trial_type": "psychophysics",
    "trial_index": 22,
    "plugin_version": "4.0.0",
    "time_elapsed": 61858
  },
  {
    "rt": null,
    "response_type": "key",
    "key_press": null,
    "response": null,
    "avg_frame_time": 16.66333333333338,
    "center_x": 400,
    "center_y": 224.8,
    "trial_type": "psychophysics",
    "trial_index": 23,
    "plugin_version": "4.0.0",
    "time_elapsed": 62362
  },
  {
    "image1": "https://jatos.mindprobe.eu/publix/32162063-2245-444d-9eeb-a91d750597cf/dist/40dece98c751976c5ae971fb799b576a.webp",
    "image2": "https://jatos.mindprobe.eu/publix/32162063-2245-444d-9eeb-a91d750597cf/dist/a0953907ed0c4f557cc32072c240bdb4.webp",
    "grid_items": [
      {
        "letter": "D",
        "color": "black"
      },
      {
        "letter": "C",
        "color": "black"
      },
      {
        "letter": "T",
        "color": "black"
      },
      {
        "letter": "G",
        "color": "black"
      },
      {
        "letter": "",
        "color": "white"
      },
      {
        "letter": "",
        "color": "white"
      },
      {
        "letter": "",
        "color": "white"
      },
      {
        "letter": "",
        "color": "white"
      }
    ],
    "target": {
      "letter": "C",
      "color": "black"
    },
    "gaze_direction": "right",
    "grid_position": "left",
    "target_type": "valid",
    "block": "practice",
    "face": "b",
    "window": {
      "dimensions": [
        864,
        1536
      ],
      "isFullscreen": "BODY"
    },
    "rt": 967,
    "response_type": "key",
    "key_press": "ArrowDown",
    "response": "ArrowDown",
    "avg_frame_time": 16.66628352490422,
    "center_x": 400,
    "center_y": 224.8,
    "trial_type": "psychophysics",
    "trial_index": 24,
    "plugin_version": "4.0.0",
    "time_elapsed": 66757
  },
  {
    "rt": null,
    "response_type": "key",
    "key_press": null,
    "response": null,
    "avg_frame_time": 16.66333333333314,
    "center_x": 400,
    "center_y": 224.8,
    "trial_type": "psychophysics",
    "trial_index": 25,
    "plugin_version": "4.0.0",
    "time_elapsed": 67262
  },
  {
    "rt": 727,
    "response": 0,
    "trial_type": "html-button-response",
    "trial_index": 26,
    "plugin_version": "2.1.0",
    "time_elapsed": 67992
  },
  {
    "rt": 6867,
    "response": " ",
    "trial_type": "html-keyboard-response",
    "trial_index": 27,
    "plugin_version": "2.1.0",
    "time_elapsed": 74861
  },
  {
    "image1": "https://jatos.mindprobe.eu/publix/32162063-2245-444d-9eeb-a91d750597cf/dist/d429c5287be0e7ceba842a59a42841aa.webp",
    "image2": "https://jatos.mindprobe.eu/publix/32162063-2245-444d-9eeb-a91d750597cf/dist/7c19086664cedcdfc2bed264c3b04bfa.webp",
    "grid_items": [
      {
        "letter": "",
        "color": "white"
      },
      {
        "letter": "",
        "color": "white"
      },
      {
        "letter": "",
        "color": "white"
      },
      {
        "letter": "",
        "color": "white"
      },
      {
        "letter": "M",
        "color": "black"
      },
      {
        "letter": "F",
        "color": "black"
      },
      {
        "letter": "G",
        "color": "black"
      },
      {
        "letter": "R",
        "color": "black"
      }
    ],
    "target": {
      "letter": "T",
      "color": "black"
    },
    "gaze_direction": "left",
    "grid_position": "right",
    "target_type": "invalid",
    "block": "block-1",
    "face": "f",
    "window": {
      "dimensions": [
        864,
        1536
      ],
      "isFullscreen": "BODY"
    },
    "rt": 799,
    "response_type": "key",
    "key_press": "ArrowDown",
    "response": "ArrowDown",
    "avg_frame_time": 16.666533864541844,
    "center_x": 400,
    "center_y": 224.8,
    "trial_type": "psychophysics",
    "trial_index": 28,
    "plugin_version": "4.0.0",
    "time_elapsed": 79073
  },
  {
    "rt": null,
    "response_type": "key",
    "key_press": null,
    "response": null,
    "avg_frame_time": 16.666666666666668,
    "center_x": 400,
    "center_y": 224.8,
    "trial_type": "psychophysics",
    "trial_index": 29,
    "plugin_version": "4.0.0",
    "time_elapsed": 79583
  },
  {
    "image1": "https://jatos.mindprobe.eu/publix/32162063-2245-444d-9eeb-a91d750597cf/dist/1d4fc1100b57f312ef6f7e81e8502a85.webp",
    "image2": "https://jatos.mindprobe.eu/publix/32162063-2245-444d-9eeb-a91d750597cf/dist/7aa52bcb2291ad2c1eab0a1c309e9ebe.webp",
    "grid_items": [
      {
        "letter": "",
        "color": "white"
      },
      {
        "letter": "",
        "color": "white"
      },
      {
        "letter": "",
        "color": "white"
      },
      {
        "letter": "",
        "color": "white"
      },
      {
        "letter": "G",
        "color": "black"
      },
      {
        "letter": "S",
        "color": "black"
      },
      {
        "letter": "L",
        "color": "black"
      },
      {
        "letter": "R",
        "color": "black"
      }
    ],
    "target": {
      "letter": "F",
      "color": "black"
    },
    "gaze_direction": "left",
    "grid_position": "right",
    "target_type": "invalid",
    "block": "block-1",
    "face": "e",
    "window": {
      "dimensions": [
        864,
        1536
      ],
      "isFullscreen": "BODY"
    },
    "rt": 733,
    "response_type": "key",
    "key_press": "ArrowDown",
    "response": "ArrowDown",
    "avg_frame_time": 16.666260162601603,
    "center_x": 400,
    "center_y": 224.8,
    "trial_type": "psychophysics",
    "trial_index": 30,
    "plugin_version": "4.0.0",
    "time_elapsed": 83724
  },
  {
    "rt": null,
    "response_type": "key",
    "key_press": null,
    "response": null,
    "avg_frame_time": 16.663333333333625,
    "center_x": 400,
    "center_y": 224.8,
    "trial_type": "psychophysics",
    "trial_index": 31,
    "plugin_version": "4.0.0",
    "time_elapsed": 84229
  },
  {
    "image1": "https://jatos.mindprobe.eu/publix/32162063-2245-444d-9eeb-a91d750597cf/dist/40dece98c751976c5ae971fb799b576a.webp",
    "image2": "https://jatos.mindprobe.eu/publix/32162063-2245-444d-9eeb-a91d750597cf/dist/a0953907ed0c4f557cc32072c240bdb4.webp",
    "grid_items": [
      {
        "letter": "",
        "color": "white"
      },
      {
        "letter": "",
        "color": "white"
      },
      {
        "letter": "",
        "color": "white"
      },
      {
        "letter": "",
        "color": "white"
      },
      {
        "letter": "T",
        "color": "black"
      },
      {
        "letter": "S",
        "color": "black"
      },
      {
        "letter": "F",
        "color": "black"
      },
      {
        "letter": "G",
        "color": "black"
      }
    ],
    "target": {
      "letter": "M",
      "color": "black"
    },
    "gaze_direction": "right",
    "grid_position": "right",
    "target_type": "invalid",
    "block": "block-1",
    "face": "b",
    "window": {
      "dimensions": [
        864,
        1536
      ],
      "isFullscreen": "BODY"
    },
    "rt": 682,
    "response_type": "key",
    "key_press": "ArrowDown",
    "response": "ArrowDown",
    "avg_frame_time": 16.6662551440329,
    "center_x": 400,
    "center_y": 224.8,
    "trial_type": "psychophysics",
    "trial_index": 32,
    "plugin_version": "4.0.0",
    "time_elapsed": 88323
  },
  {
    "rt": null,
    "response_type": "key",
    "key_press": null,
    "response": null,
    "avg_frame_time": 16.66333333333314,
    "center_x": 400,
    "center_y": 224.8,
    "trial_type": "psychophysics",
    "trial_index": 33,
    "plugin_version": "4.0.0",
    "time_elapsed": 88827
  },
  {
    "image1": "https://jatos.mindprobe.eu/publix/32162063-2245-444d-9eeb-a91d750597cf/dist/36ce3cf01c34ab194e87cdb81ee9890f.webp",
    "image2": "https://jatos.mindprobe.eu/publix/32162063-2245-444d-9eeb-a91d750597cf/dist/7abc9556bd3afc91e874c19e0dfb4358.webp",
    "grid_items": [
      {
        "letter": "",
        "color": "white"
      },
      {
        "letter": "",
        "color": "white"
      },
      {
        "letter": "",
        "color": "white"
      },
      {
        "letter": "",
        "color": "white"
      },
      {
        "letter": "K",
        "color": "black"
      },
      {
        "letter": "R",
        "color": "black"
      },
      {
        "letter": "S",
        "color": "black"
      },
      {
        "letter": "M",
        "color": "black"
      }
    ],
    "target": {
      "letter": "G",
      "color": "black"
    },
    "gaze_direction": "right",
    "grid_position": "right",
    "target_type": "invalid",
    "block": "block-1",
    "face": "c",
    "window": {
      "dimensions": [
        864,
        1536
      ],
      "isFullscreen": "BODY"
    },
    "rt": 609,
    "response_type": "key",
    "key_press": "ArrowDown",
    "response": "ArrowDown",
    "avg_frame_time": 16.666386554621813,
    "center_x": 400,
    "center_y": 224.8,
    "trial_type": "psychophysics",
    "trial_index": 34,
    "plugin_version": "4.0.0",
    "time_elapsed": 92849
  },
  {
    "rt": null,
    "response_type": "key",
    "key_press": null,
    "response": null,
    "avg_frame_time": 16.666666666666668,
    "center_x": 400,
    "center_y": 224.8,
    "trial_type": "psychophysics",
    "trial_index": 35,
    "plugin_version": "4.0.0",
    "time_elapsed": 93353
  },
  {
    "image1": "https://jatos.mindprobe.eu/publix/32162063-2245-444d-9eeb-a91d750597cf/dist/1d4fc1100b57f312ef6f7e81e8502a85.webp",
    "image2": "https://jatos.mindprobe.eu/publix/32162063-2245-444d-9eeb-a91d750597cf/dist/7aa52bcb2291ad2c1eab0a1c309e9ebe.webp",
    "grid_items": [
      {
        "letter": "R",
        "color": "black"
      },
      {
        "letter": "P",
        "color": "black"
      },
      {
        "letter": "L",
        "color": "black"
      },
      {
        "letter": "N",
        "color": "black"
      },
      {
        "letter": "",
        "color": "white"
      },
      {
        "letter": "",
        "color": "white"
      },
      {
        "letter": "",
        "color": "white"
      },
      {
        "letter": "",
        "color": "white"
      }
    ],
    "target": {
      "letter": "F",
      "color": "black"
    },
    "gaze_direction": "left",
    "grid_position": "left",
    "target_type": "invalid",
    "block": "block-1",
    "face": "e",
    "window": {
      "dimensions": [
        864,
        1536
      ],
      "isFullscreen": "BODY"
    },
    "rt": 672,
    "response_type": "key",
    "key_press": "ArrowDown",
    "response": "ArrowDown",
    "avg_frame_time": 16.666666666666668,
    "center_x": 400,
    "center_y": 224.8,
    "trial_type": "psychophysics",
    "trial_index": 36,
    "plugin_version": "4.0.0",
    "time_elapsed": 97440
  },
  {
    "rt": null,
    "response_type": "key",
    "key_press": null,
    "response": null,
    "avg_frame_time": 16.666666666666668,
    "center_x": 400,
    "center_y": 224.8,
    "trial_type": "psychophysics",
    "trial_index": 37,
    "plugin_version": "4.0.0",
    "time_elapsed": 97946
  },
  {
    "image1": "https://jatos.mindprobe.eu/publix/32162063-2245-444d-9eeb-a91d750597cf/dist/d429c5287be0e7ceba842a59a42841aa.webp",
    "image2": "https://jatos.mindprobe.eu/publix/32162063-2245-444d-9eeb-a91d750597cf/dist/9e284198aaef8c500a1145e962e8a4d0.webp",
    "grid_items": [
      {
        "letter": "R",
        "color": "black"
      },
      {
        "letter": "F",
        "color": "black"
      },
      {
        "letter": "M",
        "color": "black"
      },
      {
        "letter": "B",
        "color": "black"
      },
      {
        "letter": "",
        "color": "white"
      },
      {
        "letter": "",
        "color": "white"
      },
      {
        "letter": "",
        "color": "white"
      },
      {
        "letter": "",
        "color": "white"
      }
    ],
    "target": {
      "letter": "H",
      "color": "black"
    },
    "gaze_direction": "right",
    "grid_position": "left",
    "target_type": "invalid",
    "block": "block-1",
    "face": "f",
    "window": {
      "dimensions": [
        864,
        1536
      ],
      "isFullscreen": "BODY"
    },
    "rt": 616,
    "response_type": "key",
    "key_press": "ArrowDown",
    "response": "ArrowDown",
    "avg_frame_time": 16.735416666666666,
    "center_x": 400,
    "center_y": 224.8,
    "trial_type": "psychophysics",
    "trial_index": 38,
    "plugin_version": "4.0.0",
    "time_elapsed": 101993
  },
  {
    "rt": null,
    "response_type": "key",
    "key_press": null,
    "response": null,
    "avg_frame_time": 16.66896551724168,
    "center_x": 400,
    "center_y": 224.8,
    "trial_type": "psychophysics",
    "trial_index": 39,
    "plugin_version": "4.0.0",
    "time_elapsed": 102497
  },
  {
    "image1": "https://jatos.mindprobe.eu/publix/32162063-2245-444d-9eeb-a91d750597cf/dist/40dece98c751976c5ae971fb799b576a.webp",
    "image2": "https://jatos.mindprobe.eu/publix/32162063-2245-444d-9eeb-a91d750597cf/dist/a0953907ed0c4f557cc32072c240bdb4.webp",
    "grid_items": [
      {
        "letter": "K",
        "color": "black"
      },
      {
        "letter": "D",
        "color": "black"
      },
      {
        "letter": "T",
        "color": "black"
      },
      {
        "letter": "P",
        "color": "black"
      },
      {
        "letter": "",
        "color": "white"
      },
      {
        "letter": "",
        "color": "white"
      },
      {
        "letter": "",
        "color": "white"
      },
      {
        "letter": "",
        "color": "white"
      }
    ],
    "target": {
      "letter": "C",
      "color": "black"
    },
    "gaze_direction": "right",
    "grid_position": "left",
    "target_type": "invalid",
    "block": "block-1",
    "face": "b",
    "window": {
      "dimensions": [
        864,
        1536
      ],
      "isFullscreen": "BODY"
    },
    "rt": 594,
    "response_type": "key",
    "key_press": "ArrowDown",
    "response": "ArrowDown",
    "avg_frame_time": 16.666108786610867,
    "center_x": 400,
    "center_y": 224.8,
    "trial_type": "psychophysics",
    "trial_index": 40,
    "plugin_version": "4.0.0",
    "time_elapsed": 106511
  },
  {
    "rt": null,
    "response_type": "key",
    "key_press": null,
    "response": null,
    "avg_frame_time": 16.665517241379412,
    "center_x": 400,
    "center_y": 224.8,
    "trial_type": "psychophysics",
    "trial_index": 41,
    "plugin_version": "4.0.0",
    "time_elapsed": 107016
  },
  {
    "image1": "https://jatos.mindprobe.eu/publix/32162063-2245-444d-9eeb-a91d750597cf/dist/d429c5287be0e7ceba842a59a42841aa.webp",
    "image2": "https://jatos.mindprobe.eu/publix/32162063-2245-444d-9eeb-a91d750597cf/dist/9e284198aaef8c500a1145e962e8a4d0.webp",
    "grid_items": [
      {
        "letter": "",
        "color": "white"
      },
      {
        "letter": "",
        "color": "white"
      },
      {
        "letter": "",
        "color": "white"
      },
      {
        "letter": "",
        "color": "white"
      },
      {
        "letter": "M",
        "color": "black"
      },
      {
        "letter": "L",
        "color": "black"
      },
      {
        "letter": "B",
        "color": "black"
      },
      {
        "letter": "K",
        "color": "black"
      }
    ],
    "target": {
      "letter": "L",
      "color": "black"
    },
    "gaze_direction": "right",
    "grid_position": "right",
    "target_type": "valid",
    "block": "block-1",
    "face": "f",
    "window": {
      "dimensions": [
        864,
        1536
      ],
      "isFullscreen": "BODY"
    },
    "rt": 719,
    "response_type": "key",
    "key_press": "ArrowDown",
    "response": "ArrowDown",
    "avg_frame_time": 16.665853658536598,
    "center_x": 400,
    "center_y": 224.8,
    "trial_type": "psychophysics",
    "trial_index": 42,
    "plugin_version": "4.0.0",
    "time_elapsed": 111154
  },
  {
    "rt": null,
    "response_type": "key",
    "key_press": null,
    "response": null,
    "avg_frame_time": 16.66333333333314,
    "center_x": 400,
    "center_y": 224.8,
    "trial_type": "psychophysics",
    "trial_index": 43,
    "plugin_version": "4.0.0",
    "time_elapsed": 111658
  },
  {
    "image1": "https://jatos.mindprobe.eu/publix/32162063-2245-444d-9eeb-a91d750597cf/dist/40dece98c751976c5ae971fb799b576a.webp",
    "image2": "https://jatos.mindprobe.eu/publix/32162063-2245-444d-9eeb-a91d750597cf/dist/539bb0274850bc5c179b9239bd4821e4.webp",
    "grid_items": [
      {
        "letter": "F",
        "color": "black"
      },
      {
        "letter": "C",
        "color": "black"
      },
      {
        "letter": "L",
        "color": "black"
      },
      {
        "letter": "R",
        "color": "black"
      },
      {
        "letter": "",
        "color": "white"
      },
      {
        "letter": "",
        "color": "white"
      },
      {
        "letter": "",
        "color": "white"
      },
      {
        "letter": "",
        "color": "white"
      }
    ],
    "target": {
      "letter": "F",
      "color": "black"
    },
    "gaze_direction": "left",
    "grid_position": "left",
    "target_type": "valid",
    "block": "block-1",
    "face": "b",
    "window": {
      "dimensions": [
        864,
        1536
      ],
      "isFullscreen": "BODY"
    },
    "rt": 1119,
    "response_type": "key",
    "key_press": "ArrowDown",
    "response": "ArrowDown",
    "avg_frame_time": 16.72825278810407,
    "center_x": 400,
    "center_y": 224.8,
    "trial_type": "psychophysics",
    "trial_index": 44,
    "plugin_version": "4.0.0",
    "time_elapsed": 116201
  },
  {
    "rt": null,
    "response_type": "key",
    "key_press": null,
    "response": null,
    "avg_frame_time": 16.66896551724118,
    "center_x": 400,
    "center_y": 224.8,
    "trial_type": "psychophysics",
    "trial_index": 45,
    "plugin_version": "4.0.0",
    "time_elapsed": 116705
  },
  {
    "image1": "https://jatos.mindprobe.eu/publix/32162063-2245-444d-9eeb-a91d750597cf/dist/b2b7faaf2a59bb4bdfcb862858551c57.webp",
    "image2": "https://jatos.mindprobe.eu/publix/32162063-2245-444d-9eeb-a91d750597cf/dist/a2b978bad27da55c204371f73357f1d7.webp",
    "grid_items": [
      {
        "letter": "K",
        "color": "black"
      },
      {
        "letter": "S",
        "color": "black"
      },
      {
        "letter": "G",
        "color": "black"
      },
      {
        "letter": "R",
        "color": "black"
      },
      {
        "letter": "",
        "color": "white"
      },
      {
        "letter": "",
        "color": "white"
      },
      {
        "letter": "",
        "color": "white"
      },
      {
        "letter": "",
        "color": "white"
      }
    ],
    "target": {
      "letter": "K",
      "color": "black"
    },
    "gaze_direction": "left",
    "grid_position": "left",
    "target_type": "valid",
    "block": "block-1",
    "face": "a",
    "window": {
      "dimensions": [
        864,
        1536
      ],
      "isFullscreen": "BODY"
    },
    "rt": 1244,
    "response_type": "key",
    "key_press": "ArrowUp",
    "response": "ArrowUp",
    "avg_frame_time": 16.666546762589938,
    "center_x": 400,
    "center_y": 224.8,
    "trial_type": "psychophysics",
    "trial_index": 46,
    "plugin_version": "4.0.0",
    "time_elapsed": 121371
  },
  {
    "rt": null,
    "response_type": "key",
    "key_press": null,
    "response": null,
    "avg_frame_time": 16.665517241378907,
    "center_x": 400,
    "center_y": 224.8,
    "trial_type": "psychophysics",
    "trial_index": 47,
    "plugin_version": "4.0.0",
    "time_elapsed": 121873
  },
  {
    "image1": "https://jatos.mindprobe.eu/publix/32162063-2245-444d-9eeb-a91d750597cf/dist/36ce3cf01c34ab194e87cdb81ee9890f.webp",
    "image2": "https://jatos.mindprobe.eu/publix/32162063-2245-444d-9eeb-a91d750597cf/dist/6ef25f867bb912257ed8a75458a113f3.webp",
    "grid_items": [
      {
        "letter": "",
        "color": "white"
      },
      {
        "letter": "",
        "color": "white"
      },
      {
        "letter": "",
        "color": "white"
      },
      {
        "letter": "",
        "color": "white"
      },
      {
        "letter": "G",
        "color": "black"
      },
      {
        "letter": "S",
        "color": "black"
      },
      {
        "letter": "C",
        "color": "black"
      },
      {
        "letter": "P",
        "color": "black"
      }
    ],
    "target": {
      "letter": "R",
      "color": "black"
    },
    "gaze_direction": "left",
    "grid_position": "right",
    "target_type": "invalid",
    "block": "block-1",
    "face": "c",
    "window": {
      "dimensions": [
        864,
        1536
      ],
      "isFullscreen": "BODY"
    },
    "rt": 1147,
    "response_type": "key",
    "key_press": "ArrowUp",
    "response": "ArrowUp",
    "avg_frame_time": 16.727675276752755,
    "center_x": 400,
    "center_y": 224.8,
    "trial_type": "psychophysics",
    "trial_index": 48,
    "plugin_version": "4.0.0",
    "time_elapsed": 126426
  },
  {
    "rt": null,
    "response_type": "key",
    "key_press": null,
    "response": null,
    "avg_frame_time": 16.66896551724118,
    "center_x": 400,
    "center_y": 224.8,
    "trial_type": "psychophysics",
    "trial_index": 49,
    "plugin_version": "4.0.0",
    "time_elapsed": 126931
  },
  {
    "image1": "https://jatos.mindprobe.eu/publix/32162063-2245-444d-9eeb-a91d750597cf/dist/b2b7faaf2a59bb4bdfcb862858551c57.webp",
    "image2": "https://jatos.mindprobe.eu/publix/32162063-2245-444d-9eeb-a91d750597cf/dist/afa6e6b610b3cab6c6b449a4e2dd4d02.webp",
    "grid_items": [
      {
        "letter": "",
        "color": "white"
      },
      {
        "letter": "",
        "color": "white"
      },
      {
        "letter": "",
        "color": "white"
      },
      {
        "letter": "",
        "color": "white"
      },
      {
        "letter": "P",
        "color": "black"
      },
      {
        "letter": "G",
        "color": "black"
      },
      {
        "letter": "C",
        "color": "black"
      },
      {
        "letter": "M",
        "color": "black"
      }
    ],
    "target": {
      "letter": "C",
      "color": "black"
    },
    "gaze_direction": "right",
    "grid_position": "right",
    "target_type": "valid",
    "block": "block-1",
    "face": "a",
    "window": {
      "dimensions": [
        864,
        1536
      ],
      "isFullscreen": "BODY"
    },
    "rt": 1109,
    "response_type": "key",
    "key_press": "ArrowUp",
    "response": "ArrowUp",
    "avg_frame_time": 16.79067164179108,
    "center_x": 400,
    "center_y": 224.8,
    "trial_type": "psychophysics",
    "trial_index": 50,
    "plugin_version": "4.0.0",
    "time_elapsed": 131464
  },
  {
    "rt": null,
    "response_type": "key",
    "key_press": null,
    "response": null,
    "avg_frame_time": 16.66896551724218,
    "center_x": 400,
    "center_y": 224.8,
    "trial_type": "psychophysics",
    "trial_index": 51,
    "plugin_version": "4.0.0",
    "time_elapsed": 131969
  },
  {
    "image1": "https://jatos.mindprobe.eu/publix/32162063-2245-444d-9eeb-a91d750597cf/dist/40dece98c751976c5ae971fb799b576a.webp",
    "image2": "https://jatos.mindprobe.eu/publix/32162063-2245-444d-9eeb-a91d750597cf/dist/539bb0274850bc5c179b9239bd4821e4.webp",
    "grid_items": [
      {
        "letter": "",
        "color": "white"
      },
      {
        "letter": "",
        "color": "white"
      },
      {
        "letter": "",
        "color": "white"
      },
      {
        "letter": "",
        "color": "white"
      },
      {
        "letter": "P",
        "color": "black"
      },
      {
        "letter": "K",
        "color": "black"
      },
      {
        "letter": "G",
        "color": "black"
      },
      {
        "letter": "M",
        "color": "black"
      }
    ],
    "target": {
      "letter": "R",
      "color": "black"
    },
    "gaze_direction": "left",
    "grid_position": "right",
    "target_type": "invalid",
    "block": "block-1",
    "face": "b",
    "window": {
      "dimensions": [
        864,
        1536
      ],
      "isFullscreen": "BODY"
    },
    "rt": 1042,
    "response_type": "key",
    "key_press": "ArrowDown",
    "response": "ArrowDown",
    "avg_frame_time": 16.66616541353388,
    "center_x": 400,
    "center_y": 224.8,
    "trial_type": "psychophysics",
    "trial_index": 52,
    "plugin_version": "4.0.0",
    "time_elapsed": 136439
  },
  {
    "rt": null,
    "response_type": "key",
    "key_press": null,
    "response": null,
    "avg_frame_time": 16.666666666666668,
    "center_x": 400,
    "center_y": 224.8,
    "trial_type": "psychophysics",
    "trial_index": 53,
    "plugin_version": "4.0.0",
    "time_elapsed": 136944
  },
  {
    "image1": "https://jatos.mindprobe.eu/publix/32162063-2245-444d-9eeb-a91d750597cf/dist/0738b36f5c5284a1fbe6de5047928226.webp",
    "image2": "https://jatos.mindprobe.eu/publix/32162063-2245-444d-9eeb-a91d750597cf/dist/48e5157934b56d46aee0926365abe09d.webp",
    "grid_items": [
      {
        "letter": "",
        "color": "white"
      },
      {
        "letter": "",
        "color": "white"
      },
      {
        "letter": "",
        "color": "white"
      },
      {
        "letter": "",
        "color": "white"
      },
      {
        "letter": "C",
        "color": "black"
      },
      {
        "letter": "L",
        "color": "black"
      },
      {
        "letter": "P",
        "color": "black"
      },
      {
        "letter": "T",
        "color": "black"
      }
    ],
    "target": {
      "letter": "S",
      "color": "black"
    },
    "gaze_direction": "right",
    "grid_position": "right",
    "target_type": "invalid",
    "block": "block-1",
    "face": "d",
    "window": {
      "dimensions": [
        864,
        1536
      ],
      "isFullscreen": "BODY"
    },
    "rt": 587,
    "response_type": "key",
    "key_press": "ArrowDown",
    "response": "ArrowDown",
    "avg_frame_time": 16.73613445378144,
    "center_x": 400,
    "center_y": 224.8,
    "trial_type": "psychophysics",
    "trial_index": 54,
    "plugin_version": "4.0.0",
    "time_elapsed": 140960
  },
  {
    "rt": null,
    "response_type": "key",
    "key_press": null,
    "response": null,
    "avg_frame_time": 16.665517241378907,
    "center_x": 400,
    "center_y": 224.8,
    "trial_type": "psychophysics",
    "trial_index": 55,
    "plugin_version": "4.0.0",
    "time_elapsed": 141463
  },
  {
    "image1": "https://jatos.mindprobe.eu/publix/32162063-2245-444d-9eeb-a91d750597cf/dist/b2b7faaf2a59bb4bdfcb862858551c57.webp",
    "image2": "https://jatos.mindprobe.eu/publix/32162063-2245-444d-9eeb-a91d750597cf/dist/afa6e6b610b3cab6c6b449a4e2dd4d02.webp",
    "grid_items": [
      {
        "letter": "M",
        "color": "black"
      },
      {
        "letter": "B",
        "color": "black"
      },
      {
        "letter": "S",
        "color": "black"
      },
      {
        "letter": "G",
        "color": "black"
      },
      {
        "letter": "",
        "color": "white"
      },
      {
        "letter": "",
        "color": "white"
      },
      {
        "letter": "",
        "color": "white"
      },
      {
        "letter": "",
        "color": "white"
      }
    ],
    "target": {
      "letter": "D",
      "color": "black"
    },
    "gaze_direction": "right",
    "grid_position": "left",
    "target_type": "invalid",
    "block": "block-1",
    "face": "a",
    "window": {
      "dimensions": [
        864,
        1536
      ],
      "isFullscreen": "BODY"
    },
    "rt": 930,
    "response_type": "key",
    "key_press": "ArrowDown",
    "response": "ArrowDown",
    "avg_frame_time": 16.66627906976742,
    "center_x": 400,
    "center_y": 224.8,
    "trial_type": "psychophysics",
    "trial_index": 56,
    "plugin_version": "4.0.0",
    "time_elapsed": 145806
  },
  {
    "rt": null,
    "response_type": "key",
    "key_press": null,
    "response": null,
    "avg_frame_time": 16.666666666666668,
    "center_x": 400,
    "center_y": 224.8,
    "trial_type": "psychophysics",
    "trial_index": 57,
    "plugin_version": "4.0.0",
    "time_elapsed": 146311
  },
  {
    "image1": "https://jatos.mindprobe.eu/publix/32162063-2245-444d-9eeb-a91d750597cf/dist/0738b36f5c5284a1fbe6de5047928226.webp",
    "image2": "https://jatos.mindprobe.eu/publix/32162063-2245-444d-9eeb-a91d750597cf/dist/c2c6af7a7e254bf30109d9388b53b5d8.webp",
    "grid_items": [
      {
        "letter": "T",
        "color": "black"
      },
      {
        "letter": "K",
        "color": "black"
      },
      {
        "letter": "H",
        "color": "black"
      },
      {
        "letter": "F",
        "color": "black"
      },
      {
        "letter": "",
        "color": "white"
      },
      {
        "letter": "",
        "color": "white"
      },
      {
        "letter": "",
        "color": "white"
      },
      {
        "letter": "",
        "color": "white"
      }
    ],
    "target": {
      "letter": "S",
      "color": "black"
    },
    "gaze_direction": "left",
    "grid_position": "left",
    "target_type": "invalid",
    "block": "block-1",
    "face": "d",
    "window": {
      "dimensions": [
        864,
        1536
      ],
      "isFullscreen": "BODY"
    },
    "rt": 696,
    "response_type": "key",
    "key_press": "ArrowDown",
    "response": "ArrowDown",
    "avg_frame_time": 16.66612244897952,
    "center_x": 400,
    "center_y": 224.8,
    "trial_type": "psychophysics",
    "trial_index": 58,
    "plugin_version": "4.0.0",
    "time_elapsed": 150427
  },
  {
    "rt": null,
    "response_type": "key",
    "key_press": null,
    "response": null,
    "avg_frame_time": 16.66896551724118,
    "center_x": 400,
    "center_y": 224.8,
    "trial_type": "psychophysics",
    "trial_index": 59,
    "plugin_version": "4.0.0",
    "time_elapsed": 150932
  },
  {
    "image1": "https://jatos.mindprobe.eu/publix/32162063-2245-444d-9eeb-a91d750597cf/dist/40dece98c751976c5ae971fb799b576a.webp",
    "image2": "https://jatos.mindprobe.eu/publix/32162063-2245-444d-9eeb-a91d750597cf/dist/a0953907ed0c4f557cc32072c240bdb4.webp",
    "grid_items": [
      {
        "letter": "T",
        "color": "black"
      },
      {
        "letter": "S",
        "color": "black"
      },
      {
        "letter": "N",
        "color": "black"
      },
      {
        "letter": "L",
        "color": "black"
      },
      {
        "letter": "",
        "color": "white"
      },
      {
        "letter": "",
        "color": "white"
      },
      {
        "letter": "",
        "color": "white"
      },
      {
        "letter": "",
        "color": "white"
      }
    ],
    "target": {
      "letter": "T",
      "color": "black"
    },
    "gaze_direction": "right",
    "grid_position": "left",
    "target_type": "valid",
    "block": "block-1",
    "face": "b",
    "window": {
      "dimensions": [
        864,
        1536
      ],
      "isFullscreen": "BODY"
    },
    "rt": 786,
    "response_type": "key",
    "key_press": "ArrowDown",
    "response": "ArrowDown",
    "avg_frame_time": 16.666400000000024,
    "center_x": 400,
    "center_y": 224.8,
    "trial_type": "psychophysics",
    "trial_index": 60,
    "plugin_version": "4.0.0",
    "time_elapsed": 155137
  },
  {
    "rt": null,
    "response_type": "key",
    "key_press": null,
    "response": null,
    "avg_frame_time": 16.665517241379913,
    "center_x": 400,
    "center_y": 224.8,
    "trial_type": "psychophysics",
    "trial_index": 61,
    "plugin_version": "4.0.0",
    "time_elapsed": 155638
  },
  {
    "image1": "https://jatos.mindprobe.eu/publix/32162063-2245-444d-9eeb-a91d750597cf/dist/36ce3cf01c34ab194e87cdb81ee9890f.webp",
    "image2": "https://jatos.mindprobe.eu/publix/32162063-2245-444d-9eeb-a91d750597cf/dist/6ef25f867bb912257ed8a75458a113f3.webp",
    "grid_items": [
      {
        "letter": "",
        "color": "white"
      },
      {
        "letter": "",
        "color": "white"
      },
      {
        "letter": "",
        "color": "white"
      },
      {
        "letter": "",
        "color": "white"
      },
      {
        "letter": "F",
        "color": "black"
      },
      {
        "letter": "M",
        "color": "black"
      },
      {
        "letter": "S",
        "color": "black"
      },
      {
        "letter": "P",
        "color": "black"
      }
    ],
    "target": {
      "letter": "M",
      "color": "black"
    },
    "gaze_direction": "left",
    "grid_position": "right",
    "target_type": "valid",
    "block": "block-1",
    "face": "c",
    "window": {
      "dimensions": [
        864,
        1536
      ],
      "isFullscreen": "BODY"
    },
    "rt": 906,
    "response_type": "key",
    "key_press": "ArrowUp",
    "response": "ArrowUp",
    "avg_frame_time": 16.666147859922223,
    "center_x": 400,
    "center_y": 224.8,
    "trial_type": "psychophysics",
    "trial_index": 62,
    "plugin_version": "4.0.0",
    "time_elapsed": 159954
  },
  {
    "rt": null,
    "response_type": "key",
    "key_press": null,
    "response": null,
    "avg_frame_time": 16.666666666666668,
    "center_x": 400,
    "center_y": 224.8,
    "trial_type": "psychophysics",
    "trial_index": 63,
    "plugin_version": "4.0.0",
    "time_elapsed": 160456
  },
  {
    "image1": "https://jatos.mindprobe.eu/publix/32162063-2245-444d-9eeb-a91d750597cf/dist/0738b36f5c5284a1fbe6de5047928226.webp",
    "image2": "https://jatos.mindprobe.eu/publix/32162063-2245-444d-9eeb-a91d750597cf/dist/48e5157934b56d46aee0926365abe09d.webp",
    "grid_items": [
      {
        "letter": "T",
        "color": "black"
      },
      {
        "letter": "C",
        "color": "black"
      },
      {
        "letter": "H",
        "color": "black"
      },
      {
        "letter": "L",
        "color": "black"
      },
      {
        "letter": "",
        "color": "white"
      },
      {
        "letter": "",
        "color": "white"
      },
      {
        "letter": "",
        "color": "white"
      },
      {
        "letter": "",
        "color": "white"
      }
    ],
    "target": {
      "letter": "L",
      "color": "black"
    },
    "gaze_direction": "right",
    "grid_position": "left",
    "target_type": "valid",
    "block": "block-1",
    "face": "d",
    "window": {
      "dimensions": [
        864,
        1536
      ],
      "isFullscreen": "BODY"
    },
    "rt": 840,
    "response_type": "key",
    "key_press": "ArrowUp",
    "response": "ArrowUp",
    "avg_frame_time": 16.66653543307082,
    "center_x": 400,
    "center_y": 224.8,
    "trial_type": "psychophysics",
    "trial_index": 64,
    "plugin_version": "4.0.0",
    "time_elapsed": 164708
  },
  {
    "rt": null,
    "response_type": "key",
    "key_press": null,
    "response": null,
    "avg_frame_time": 16.665517241379913,
    "center_x": 400,
    "center_y": 224.8,
    "trial_type": "psychophysics",
    "trial_index": 65,
    "plugin_version": "4.0.0",
    "time_elapsed": 165210
  },
  {
    "image1": "https://jatos.mindprobe.eu/publix/32162063-2245-444d-9eeb-a91d750597cf/dist/36ce3cf01c34ab194e87cdb81ee9890f.webp",
    "image2": "https://jatos.mindprobe.eu/publix/32162063-2245-444d-9eeb-a91d750597cf/dist/7abc9556bd3afc91e874c19e0dfb4358.webp",
    "grid_items": [
      {
        "letter": "M",
        "color": "black"
      },
      {
        "letter": "B",
        "color": "black"
      },
      {
        "letter": "F",
        "color": "black"
      },
      {
        "letter": "H",
        "color": "black"
      },
      {
        "letter": "",
        "color": "white"
      },
      {
        "letter": "",
        "color": "white"
      },
      {
        "letter": "",
        "color": "white"
      },
      {
        "letter": "",
        "color": "white"
      }
    ],
    "target": {
      "letter": "B",
      "color": "black"
    },
    "gaze_direction": "right",
    "grid_position": "left",
    "target_type": "valid",
    "block": "block-1",
    "face": "c",
    "window": {
      "dimensions": [
        864,
        1536
      ],
      "isFullscreen": "BODY"
    },
    "rt": 1032,
    "response_type": "key",
    "key_press": "ArrowUp",
    "response": "ArrowUp",
    "avg_frame_time": 16.666415094339644,
    "center_x": 400,
    "center_y": 224.8,
    "trial_type": "psychophysics",
    "trial_index": 66,
    "plugin_version": "4.0.0",
    "time_elapsed": 169652
  },
  {
    "rt": null,
    "response_type": "key",
    "key_press": null,
    "response": null,
    "avg_frame_time": 16.66896551724118,
    "center_x": 400,
    "center_y": 224.8,
    "trial_type": "psychophysics",
    "trial_index": 67,
    "plugin_version": "4.0.0",
    "time_elapsed": 170154
  },
  {
    "image1": "https://jatos.mindprobe.eu/publix/32162063-2245-444d-9eeb-a91d750597cf/dist/b2b7faaf2a59bb4bdfcb862858551c57.webp",
    "image2": "https://jatos.mindprobe.eu/publix/32162063-2245-444d-9eeb-a91d750597cf/dist/afa6e6b610b3cab6c6b449a4e2dd4d02.webp",
    "grid_items": [
      {
        "letter": "",
        "color": "white"
      },
      {
        "letter": "",
        "color": "white"
      },
      {
        "letter": "",
        "color": "white"
      },
      {
        "letter": "",
        "color": "white"
      },
      {
        "letter": "R",
        "color": "black"
      },
      {
        "letter": "K",
        "color": "black"
      },
      {
        "letter": "S",
        "color": "black"
      },
      {
        "letter": "L",
        "color": "black"
      }
    ],
    "target": {
      "letter": "D",
      "color": "black"
    },
    "gaze_direction": "right",
    "grid_position": "right",
    "target_type": "invalid",
    "block": "block-1",
    "face": "a",
    "window": {
      "dimensions": [
        864,
        1536
      ],
      "isFullscreen": "BODY"
    },
    "rt": 828,
    "response_type": "key",
    "key_press": "ArrowDown",
    "response": "ArrowDown",
    "avg_frame_time": 16.66600790513834,
    "center_x": 400,
    "center_y": 224.8,
    "trial_type": "psychophysics",
    "trial_index": 68,
    "plugin_version": "4.0.0",
    "time_elapsed": 174393
  },
  {
    "rt": null,
    "response_type": "key",
    "key_press": null,
    "response": null,
    "avg_frame_time": 16.665517241378907,
    "center_x": 400,
    "center_y": 224.8,
    "trial_type": "psychophysics",
    "trial_index": 69,
    "plugin_version": "4.0.0",
    "time_elapsed": 174895
  },
  {
    "image1": "https://jatos.mindprobe.eu/publix/32162063-2245-444d-9eeb-a91d750597cf/dist/36ce3cf01c34ab194e87cdb81ee9890f.webp",
    "image2": "https://jatos.mindprobe.eu/publix/32162063-2245-444d-9eeb-a91d750597cf/dist/6ef25f867bb912257ed8a75458a113f3.webp",
    "grid_items": [
      {
        "letter": "D",
        "color": "black"
      },
      {
        "letter": "C",
        "color": "black"
      },
      {
        "letter": "R",
        "color": "black"
      },
      {
        "letter": "P",
        "color": "black"
      },
      {
        "letter": "",
        "color": "white"
      },
      {
        "letter": "",
        "color": "white"
      },
      {
        "letter": "",
        "color": "white"
      },
      {
        "letter": "",
        "color": "white"
      }
    ],
    "target": {
      "letter": "D",
      "color": "black"
    },
    "gaze_direction": "left",
    "grid_position": "left",
    "target_type": "valid",
    "block": "block-1",
    "face": "c",
    "window": {
      "dimensions": [
        864,
        1536
      ],
      "isFullscreen": "BODY"
    },
    "rt": 704,
    "response_type": "key",
    "key_press": "ArrowUp",
    "response": "ArrowUp",
    "avg_frame_time": 16.666530612244852,
    "center_x": 400,
    "center_y": 224.8,
    "trial_type": "psychophysics",
    "trial_index": 70,
    "plugin_version": "4.0.0",
    "time_elapsed": 179014
  },
  {
    "rt": null,
    "response_type": "key",
    "key_press": null,
    "response": null,
    "avg_frame_time": 16.665517241378907,
    "center_x": 400,
    "center_y": 224.8,
    "trial_type": "psychophysics",
    "trial_index": 71,
    "plugin_version": "4.0.0",
    "time_elapsed": 179517
  },
  {
    "image1": "https://jatos.mindprobe.eu/publix/32162063-2245-444d-9eeb-a91d750597cf/dist/1d4fc1100b57f312ef6f7e81e8502a85.webp",
    "image2": "https://jatos.mindprobe.eu/publix/32162063-2245-444d-9eeb-a91d750597cf/dist/f133a138299afe57854b3487f1de2960.webp",
    "grid_items": [
      {
        "letter": "",
        "color": "white"
      },
      {
        "letter": "",
        "color": "white"
      },
      {
        "letter": "",
        "color": "white"
      },
      {
        "letter": "",
        "color": "white"
      },
      {
        "letter": "N",
        "color": "black"
      },
      {
        "letter": "G",
        "color": "black"
      },
      {
        "letter": "C",
        "color": "black"
      },
      {
        "letter": "S",
        "color": "black"
      }
    ],
    "target": {
      "letter": "C",
      "color": "black"
    },
    "gaze_direction": "right",
    "grid_position": "right",
    "target_type": "valid",
    "block": "block-1",
    "face": "e",
    "window": {
      "dimensions": [
        864,
        1536
      ],
      "isFullscreen": "BODY"
    },
    "rt": 646,
    "response_type": "key",
    "key_press": "ArrowUp",
    "response": "ArrowUp",
    "avg_frame_time": 16.666115702479267,
    "center_x": 400,
    "center_y": 224.8,
    "trial_type": "psychophysics",
    "trial_index": 72,
    "plugin_version": "4.0.0",
    "time_elapsed": 183579
  },
  {
    "rt": null,
    "response_type": "key",
    "key_press": null,
    "response": null,
    "avg_frame_time": 16.665517241378907,
    "center_x": 400,
    "center_y": 224.8,
    "trial_type": "psychophysics",
    "trial_index": 73,
    "plugin_version": "4.0.0",
    "time_elapsed": 184081
  },
  {
    "image1": "https://jatos.mindprobe.eu/publix/32162063-2245-444d-9eeb-a91d750597cf/dist/b2b7faaf2a59bb4bdfcb862858551c57.webp",
    "image2": "https://jatos.mindprobe.eu/publix/32162063-2245-444d-9eeb-a91d750597cf/dist/afa6e6b610b3cab6c6b449a4e2dd4d02.webp",
    "grid_items": [
      {
        "letter": "D",
        "color": "black"
      },
      {
        "letter": "P",
        "color": "black"
      },
      {
        "letter": "H",
        "color": "black"
      },
      {
        "letter": "K",
        "color": "black"
      },
      {
        "letter": "",
        "color": "white"
      },
      {
        "letter": "",
        "color": "white"
      },
      {
        "letter": "",
        "color": "white"
      },
      {
        "letter": "",
        "color": "white"
      }
    ],
    "target": {
      "letter": "H",
      "color": "black"
    },
    "gaze_direction": "right",
    "grid_position": "left",
    "target_type": "valid",
    "block": "block-1",
    "face": "a",
    "window": {
      "dimensions": [
        864,
        1536
      ],
      "isFullscreen": "BODY"
    },
    "rt": 644,
    "response_type": "key",
    "key_press": "ArrowDown",
    "response": "ArrowDown",
    "avg_frame_time": 16.666115702479267,
    "center_x": 400,
    "center_y": 224.8,
    "trial_type": "psychophysics",
    "trial_index": 74,
    "plugin_version": "4.0.0",
    "time_elapsed": 188142
  },
  {
    "rt": null,
    "response_type": "key",
    "key_press": null,
    "response": null,
    "avg_frame_time": 16.665517241378907,
    "center_x": 400,
    "center_y": 224.8,
    "trial_type": "psychophysics",
    "trial_index": 75,
    "plugin_version": "4.0.0",
    "time_elapsed": 188646
  },
  {
    "image1": "https://jatos.mindprobe.eu/publix/32162063-2245-444d-9eeb-a91d750597cf/dist/0738b36f5c5284a1fbe6de5047928226.webp",
    "image2": "https://jatos.mindprobe.eu/publix/32162063-2245-444d-9eeb-a91d750597cf/dist/48e5157934b56d46aee0926365abe09d.webp",
    "grid_items": [
      {
        "letter": "",
        "color": "white"
      },
      {
        "letter": "",
        "color": "white"
      },
      {
        "letter": "",
        "color": "white"
      },
      {
        "letter": "",
        "color": "white"
      },
      {
        "letter": "F",
        "color": "black"
      },
      {
        "letter": "B",
        "color": "black"
      },
      {
        "letter": "L",
        "color": "black"
      },
      {
        "letter": "H",
        "color": "black"
      }
    ],
    "target": {
      "letter": "B",
      "color": "black"
    },
    "gaze_direction": "right",
    "grid_position": "right",
    "target_type": "valid",
    "block": "block-1",
    "face": "d",
    "window": {
      "dimensions": [
        864,
        1536
      ],
      "isFullscreen": "BODY"
    },
    "rt": 820,
    "response_type": "key",
    "key_press": "ArrowUp",
    "response": "ArrowUp",
    "avg_frame_time": 16.666269841269933,
    "center_x": 400,
    "center_y": 224.8,
    "trial_type": "psychophysics",
    "trial_index": 76,
    "plugin_version": "4.0.0",
    "time_elapsed": 192887
  },
  {
    "rt": null,
    "response_type": "key",
    "key_press": null,
    "response": null,
    "avg_frame_time": 16.666666666666668,
    "center_x": 400,
    "center_y": 224.8,
    "trial_type": "psychophysics",
    "trial_index": 77,
    "plugin_version": "4.0.0",
    "time_elapsed": 193389
  },
  {
    "image1": "https://jatos.mindprobe.eu/publix/32162063-2245-444d-9eeb-a91d750597cf/dist/1d4fc1100b57f312ef6f7e81e8502a85.webp",
    "image2": "https://jatos.mindprobe.eu/publix/32162063-2245-444d-9eeb-a91d750597cf/dist/7aa52bcb2291ad2c1eab0a1c309e9ebe.webp",
    "grid_items": [
      {
        "letter": "L",
        "color": "black"
      },
      {
        "letter": "T",
        "color": "black"
      },
      {
        "letter": "M",
        "color": "black"
      },
      {
        "letter": "D",
        "color": "black"
      },
      {
        "letter": "",
        "color": "white"
      },
      {
        "letter": "",
        "color": "white"
      },
      {
        "letter": "",
        "color": "white"
      },
      {
        "letter": "",
        "color": "white"
      }
    ],
    "target": {
      "letter": "M",
      "color": "black"
    },
    "gaze_direction": "left",
    "grid_position": "left",
    "target_type": "valid",
    "block": "block-1",
    "face": "e",
    "window": {
      "dimensions": [
        864,
        1536
      ],
      "isFullscreen": "BODY"
    },
    "rt": 619,
    "response_type": "key",
    "key_press": "ArrowUp",
    "response": "ArrowUp",
    "avg_frame_time": 16.665833333333286,
    "center_x": 400,
    "center_y": 224.8,
    "trial_type": "psychophysics",
    "trial_index": 78,
    "plugin_version": "4.0.0",
    "time_elapsed": 197426
  },
  {
    "rt": null,
    "response_type": "key",
    "key_press": null,
    "response": null,
    "avg_frame_time": 16.665517241378907,
    "center_x": 400,
    "center_y": 224.8,
    "trial_type": "psychophysics",
    "trial_index": 79,
    "plugin_version": "4.0.0",
    "time_elapsed": 197929
  },
  {
    "image1": "https://jatos.mindprobe.eu/publix/32162063-2245-444d-9eeb-a91d750597cf/dist/0738b36f5c5284a1fbe6de5047928226.webp",
    "image2": "https://jatos.mindprobe.eu/publix/32162063-2245-444d-9eeb-a91d750597cf/dist/c2c6af7a7e254bf30109d9388b53b5d8.webp",
    "grid_items": [
      {
        "letter": "N",
        "color": "black"
      },
      {
        "letter": "P",
        "color": "black"
      },
      {
        "letter": "L",
        "color": "black"
      },
      {
        "letter": "G",
        "color": "black"
      },
      {
        "letter": "",
        "color": "white"
      },
      {
        "letter": "",
        "color": "white"
      },
      {
        "letter": "",
        "color": "white"
      },
      {
        "letter": "",
        "color": "white"
      }
    ],
    "target": {
      "letter": "N",
      "color": "black"
    },
    "gaze_direction": "left",
    "grid_position": "left",
    "target_type": "valid",
    "block": "block-1",
    "face": "d",
    "window": {
      "dimensions": [
        864,
        1536
      ],
      "isFullscreen": "BODY"
    },
    "rt": 806,
    "response_type": "key",
    "key_press": "ArrowUp",
    "response": "ArrowUp",
    "avg_frame_time": 16.666666666666668,
    "center_x": 400,
    "center_y": 224.8,
    "trial_type": "psychophysics",
    "trial_index": 80,
    "plugin_version": "4.0.0",
    "time_elapsed": 202157
  },
  {
    "rt": null,
    "response_type": "key",
    "key_press": null,
    "response": null,
    "avg_frame_time": 16.665517241379913,
    "center_x": 400,
    "center_y": 224.8,
    "trial_type": "psychophysics",
    "trial_index": 81,
    "plugin_version": "4.0.0",
    "time_elapsed": 202660
  },
  {
    "image1": "https://jatos.mindprobe.eu/publix/32162063-2245-444d-9eeb-a91d750597cf/dist/d429c5287be0e7ceba842a59a42841aa.webp",
    "image2": "https://jatos.mindprobe.eu/publix/32162063-2245-444d-9eeb-a91d750597cf/dist/7c19086664cedcdfc2bed264c3b04bfa.webp",
    "grid_items": [
      {
        "letter": "G",
        "color": "black"
      },
      {
        "letter": "T",
        "color": "black"
      },
      {
        "letter": "N",
        "color": "black"
      },
      {
        "letter": "R",
        "color": "black"
      },
      {
        "letter": "",
        "color": "white"
      },
      {
        "letter": "",
        "color": "white"
      },
      {
        "letter": "",
        "color": "white"
      },
      {
        "letter": "",
        "color": "white"
      }
    ],
    "target": {
      "letter": "N",
      "color": "black"
    },
    "gaze_direction": "left",
    "grid_position": "left",
    "target_type": "valid",
    "block": "block-1",
    "face": "f",
    "window": {
      "dimensions": [
        864,
        1536
      ],
      "isFullscreen": "BODY"
    },
    "rt": 754,
    "response_type": "key",
    "key_press": "ArrowUp",
    "response": "ArrowUp",
    "avg_frame_time": 16.666265060240942,
    "center_x": 400,
    "center_y": 224.8,
    "trial_type": "psychophysics",
    "trial_index": 82,
    "plugin_version": "4.0.0",
    "time_elapsed": 206842
  },
  {
    "rt": null,
    "response_type": "key",
    "key_press": null,
    "response": null,
    "avg_frame_time": 16.665517241378907,
    "center_x": 400,
    "center_y": 224.8,
    "trial_type": "psychophysics",
    "trial_index": 83,
    "plugin_version": "4.0.0",
    "time_elapsed": 207346
  },
  {
    "image1": "https://jatos.mindprobe.eu/publix/32162063-2245-444d-9eeb-a91d750597cf/dist/b2b7faaf2a59bb4bdfcb862858551c57.webp",
    "image2": "https://jatos.mindprobe.eu/publix/32162063-2245-444d-9eeb-a91d750597cf/dist/a2b978bad27da55c204371f73357f1d7.webp",
    "grid_items": [
      {
        "letter": "",
        "color": "white"
      },
      {
        "letter": "",
        "color": "white"
      },
      {
        "letter": "",
        "color": "white"
      },
      {
        "letter": "",
        "color": "white"
      },
      {
        "letter": "F",
        "color": "black"
      },
      {
        "letter": "P",
        "color": "black"
      },
      {
        "letter": "B",
        "color": "black"
      },
      {
        "letter": "C",
        "color": "black"
      }
    ],
    "target": {
      "letter": "N",
      "color": "black"
    },
    "gaze_direction": "left",
    "grid_position": "right",
    "target_type": "invalid",
    "block": "block-1",
    "face": "a",
    "window": {
      "dimensions": [
        864,
        1536
      ],
      "isFullscreen": "BODY"
    },
    "rt": 580,
    "response_type": "key",
    "key_press": "ArrowDown",
    "response": "ArrowDown",
    "avg_frame_time": 16.736708860759396,
    "center_x": 400,
    "center_y": 224.8,
    "trial_type": "psychophysics",
    "trial_index": 84,
    "plugin_version": "4.0.0",
    "time_elapsed": 211342
  },
  {
    "rt": null,
    "response_type": "key",
    "key_press": null,
    "response": null,
    "avg_frame_time": 16.662068965517644,
    "center_x": 400,
    "center_y": 224.8,
    "trial_type": "psychophysics",
    "trial_index": 85,
    "plugin_version": "4.0.0",
    "time_elapsed": 211846
  },
  {
    "image1": "https://jatos.mindprobe.eu/publix/32162063-2245-444d-9eeb-a91d750597cf/dist/36ce3cf01c34ab194e87cdb81ee9890f.webp",
    "image2": "https://jatos.mindprobe.eu/publix/32162063-2245-444d-9eeb-a91d750597cf/dist/6ef25f867bb912257ed8a75458a113f3.webp",
    "grid_items": [
      {
        "letter": "B",
        "color": "black"
      },
      {
        "letter": "F",
        "color": "black"
      },
      {
        "letter": "R",
        "color": "black"
      },
      {
        "letter": "C",
        "color": "black"
      },
      {
        "letter": "",
        "color": "white"
      },
      {
        "letter": "",
        "color": "white"
      },
      {
        "letter": "",
        "color": "white"
      },
      {
        "letter": "",
        "color": "white"
      }
    ],
    "target": {
      "letter": "N",
      "color": "black"
    },
    "gaze_direction": "left",
    "grid_position": "left",
    "target_type": "invalid",
    "block": "block-1",
    "face": "c",
    "window": {
      "dimensions": [
        864,
        1536
      ],
      "isFullscreen": "BODY"
    },
    "rt": 753,
    "response_type": "key",
    "key_press": "ArrowDown",
    "response": "ArrowDown",
    "avg_frame_time": 16.66586345381533,
    "center_x": 400,
    "center_y": 224.8,
    "trial_type": "psychophysics",
    "trial_index": 86,
    "plugin_version": "4.0.0",
    "time_elapsed": 216048
  },
  {
    "rt": null,
    "response_type": "key",
    "key_press": null,
    "response": null,
    "avg_frame_time": 16.665517241379913,
    "center_x": 400,
    "center_y": 224.8,
    "trial_type": "psychophysics",
    "trial_index": 87,
    "plugin_version": "4.0.0",
    "time_elapsed": 216554
  },
  {
    "image1": "https://jatos.mindprobe.eu/publix/32162063-2245-444d-9eeb-a91d750597cf/dist/1d4fc1100b57f312ef6f7e81e8502a85.webp",
    "image2": "https://jatos.mindprobe.eu/publix/32162063-2245-444d-9eeb-a91d750597cf/dist/f133a138299afe57854b3487f1de2960.webp",
    "grid_items": [
      {
        "letter": "",
        "color": "white"
      },
      {
        "letter": "",
        "color": "white"
      },
      {
        "letter": "",
        "color": "white"
      },
      {
        "letter": "",
        "color": "white"
      },
      {
        "letter": "M",
        "color": "black"
      },
      {
        "letter": "P",
        "color": "black"
      },
      {
        "letter": "N",
        "color": "black"
      },
      {
        "letter": "S",
        "color": "black"
      }
    ],
    "target": {
      "letter": "F",
      "color": "black"
    },
    "gaze_direction": "right",
    "grid_position": "right",
    "target_type": "invalid",
    "block": "block-1",
    "face": "e",
    "window": {
      "dimensions": [
        864,
        1536
      ],
      "isFullscreen": "BODY"
    },
    "rt": 684,
    "response_type": "key",
    "key_press": "ArrowDown",
    "response": "ArrowDown",
    "avg_frame_time": 16.66653061224497,
    "center_x": 400,
    "center_y": 224.8,
    "trial_type": "psychophysics",
    "trial_index": 88,
    "plugin_version": "4.0.0",
    "time_elapsed": 220693
  },
  {
    "rt": null,
    "response_type": "key",
    "key_press": null,
    "response": null,
    "avg_frame_time": 16.66896551724118,
    "center_x": 400,
    "center_y": 224.8,
    "trial_type": "psychophysics",
    "trial_index": 89,
    "plugin_version": "4.0.0",
    "time_elapsed": 221198
  },
  {
    "image1": "https://jatos.mindprobe.eu/publix/32162063-2245-444d-9eeb-a91d750597cf/dist/b2b7faaf2a59bb4bdfcb862858551c57.webp",
    "image2": "https://jatos.mindprobe.eu/publix/32162063-2245-444d-9eeb-a91d750597cf/dist/a2b978bad27da55c204371f73357f1d7.webp",
    "grid_items": [
      {
        "letter": "G",
        "color": "black"
      },
      {
        "letter": "P",
        "color": "black"
      },
      {
        "letter": "F",
        "color": "black"
      },
      {
        "letter": "S",
        "color": "black"
      },
      {
        "letter": "",
        "color": "white"
      },
      {
        "letter": "",
        "color": "white"
      },
      {
        "letter": "",
        "color": "white"
      },
      {
        "letter": "",
        "color": "white"
      }
    ],
    "target": {
      "letter": "H",
      "color": "black"
    },
    "gaze_direction": "left",
    "grid_position": "left",
    "target_type": "invalid",
    "block": "block-1",
    "face": "a",
    "window": {
      "dimensions": [
        864,
        1536
      ],
      "isFullscreen": "BODY"
    },
    "rt": 869,
    "response_type": "key",
    "key_press": "ArrowDown",
    "response": "ArrowDown",
    "avg_frame_time": 16.665624999999977,
    "center_x": 400,
    "center_y": 224.8,
    "trial_type": "psychophysics",
    "trial_index": 90,
    "plugin_version": "4.0.0",
    "time_elapsed": 225506
  },
  {
    "rt": null,
    "response_type": "key",
    "key_press": null,
    "response": null,
    "avg_frame_time": 16.665517241379913,
    "center_x": 400,
    "center_y": 224.8,
    "trial_type": "psychophysics",
    "trial_index": 91,
    "plugin_version": "4.0.0",
    "time_elapsed": 226012
  },
  {
    "image1": "https://jatos.mindprobe.eu/publix/32162063-2245-444d-9eeb-a91d750597cf/dist/d429c5287be0e7ceba842a59a42841aa.webp",
    "image2": "https://jatos.mindprobe.eu/publix/32162063-2245-444d-9eeb-a91d750597cf/dist/9e284198aaef8c500a1145e962e8a4d0.webp",
    "grid_items": [
      {
        "letter": "R",
        "color": "black"
      },
      {
        "letter": "B",
        "color": "black"
      },
      {
        "letter": "G",
        "color": "black"
      },
      {
        "letter": "K",
        "color": "black"
      },
      {
        "letter": "",
        "color": "white"
      },
      {
        "letter": "",
        "color": "white"
      },
      {
        "letter": "",
        "color": "white"
      },
      {
        "letter": "",
        "color": "white"
      }
    ],
    "target": {
      "letter": "G",
      "color": "black"
    },
    "gaze_direction": "right",
    "grid_position": "left",
    "target_type": "valid",
    "block": "block-1",
    "face": "f",
    "window": {
      "dimensions": [
        864,
        1536
      ],
      "isFullscreen": "BODY"
    },
    "rt": 678,
    "response_type": "key",
    "key_press": "ArrowUp",
    "response": "ArrowUp",
    "avg_frame_time": 16.734156378600918,
    "center_x": 400,
    "center_y": 224.8,
    "trial_type": "psychophysics",
    "trial_index": 92,
    "plugin_version": "4.0.0",
    "time_elapsed": 230146
  },
  {
    "rt": null,
    "response_type": "key",
    "key_press": null,
    "response": null,
    "avg_frame_time": 16.665517241379913,
    "center_x": 400,
    "center_y": 224.8,
    "trial_type": "psychophysics",
    "trial_index": 93,
    "plugin_version": "4.0.0",
    "time_elapsed": 230650
  },
  {
    "image1": "https://jatos.mindprobe.eu/publix/32162063-2245-444d-9eeb-a91d750597cf/dist/d429c5287be0e7ceba842a59a42841aa.webp",
    "image2": "https://jatos.mindprobe.eu/publix/32162063-2245-444d-9eeb-a91d750597cf/dist/7c19086664cedcdfc2bed264c3b04bfa.webp",
    "grid_items": [
      {
        "letter": "B",
        "color": "black"
      },
      {
        "letter": "L",
        "color": "black"
      },
      {
        "letter": "D",
        "color": "black"
      },
      {
        "letter": "K",
        "color": "black"
      },
      {
        "letter": "",
        "color": "white"
      },
      {
        "letter": "",
        "color": "white"
      },
      {
        "letter": "",
        "color": "white"
      },
      {
        "letter": "",
        "color": "white"
      }
    ],
    "target": {
      "letter": "N",
      "color": "black"
    },
    "gaze_direction": "left",
    "grid_position": "left",
    "target_type": "invalid",
    "block": "block-1",
    "face": "f",
    "window": {
      "dimensions": [
        864,
        1536
      ],
      "isFullscreen": "BODY"
    },
    "rt": 640,
    "response_type": "key",
    "key_press": "ArrowDown",
    "response": "ArrowDown",
    "avg_frame_time": 16.666528925619787,
    "center_x": 400,
    "center_y": 224.8,
    "trial_type": "psychophysics",
    "trial_index": 94,
    "plugin_version": "4.0.0",
    "time_elapsed": 234721
  },
  {
    "rt": null,
    "response_type": "key",
    "key_press": null,
    "response": null,
    "avg_frame_time": 16.666666666666668,
    "center_x": 400,
    "center_y": 224.8,
    "trial_type": "psychophysics",
    "trial_index": 95,
    "plugin_version": "4.0.0",
    "time_elapsed": 235226
  },
  {
    "image1": "https://jatos.mindprobe.eu/publix/32162063-2245-444d-9eeb-a91d750597cf/dist/36ce3cf01c34ab194e87cdb81ee9890f.webp",
    "image2": "https://jatos.mindprobe.eu/publix/32162063-2245-444d-9eeb-a91d750597cf/dist/7abc9556bd3afc91e874c19e0dfb4358.webp",
    "grid_items": [
      {
        "letter": "",
        "color": "white"
      },
      {
        "letter": "",
        "color": "white"
      },
      {
        "letter": "",
        "color": "white"
      },
      {
        "letter": "",
        "color": "white"
      },
      {
        "letter": "S",
        "color": "black"
      },
      {
        "letter": "K",
        "color": "black"
      },
      {
        "letter": "R",
        "color": "black"
      },
      {
        "letter": "F",
        "color": "black"
      }
    ],
    "target": {
      "letter": "K",
      "color": "black"
    },
    "gaze_direction": "right",
    "grid_position": "right",
    "target_type": "valid",
    "block": "block-1",
    "face": "c",
    "window": {
      "dimensions": [
        864,
        1536
      ],
      "isFullscreen": "BODY"
    },
    "rt": 497,
    "response_type": "key",
    "key_press": "ArrowUp",
    "response": "ArrowUp",
    "avg_frame_time": 16.738197424892704,
    "center_x": 400,
    "center_y": 224.8,
    "trial_type": "psychophysics",
    "trial_index": 96,
    "plugin_version": "4.0.0",
    "time_elapsed": 239177
  },
  {
    "rt": null,
    "response_type": "key",
    "key_press": null,
    "response": null,
    "avg_frame_time": 16.665517241378907,
    "center_x": 400,
    "center_y": 224.8,
    "trial_type": "psychophysics",
    "trial_index": 97,
    "plugin_version": "4.0.0",
    "time_elapsed": 239683
  },
  {
    "image1": "https://jatos.mindprobe.eu/publix/32162063-2245-444d-9eeb-a91d750597cf/dist/36ce3cf01c34ab194e87cdb81ee9890f.webp",
    "image2": "https://jatos.mindprobe.eu/publix/32162063-2245-444d-9eeb-a91d750597cf/dist/7abc9556bd3afc91e874c19e0dfb4358.webp",
    "grid_items": [
      {
        "letter": "T",
        "color": "black"
      },
      {
        "letter": "C",
        "color": "black"
      },
      {
        "letter": "B",
        "color": "black"
      },
      {
        "letter": "H",
        "color": "black"
      },
      {
        "letter": "",
        "color": "white"
      },
      {
        "letter": "",
        "color": "white"
      },
      {
        "letter": "",
        "color": "white"
      },
      {
        "letter": "",
        "color": "white"
      }
    ],
    "target": {
      "letter": "R",
      "color": "black"
    },
    "gaze_direction": "right",
    "grid_position": "left",
    "target_type": "invalid",
    "block": "block-1",
    "face": "c",
    "window": {
      "dimensions": [
        864,
        1536
      ],
      "isFullscreen": "BODY"
    },
    "rt": 723,
    "response_type": "key",
    "key_press": "ArrowDown",
    "response": "ArrowDown",
    "avg_frame_time": 16.66599190283401,
    "center_x": 400,
    "center_y": 224.8,
    "trial_type": "psychophysics",
    "trial_index": 98,
    "plugin_version": "4.0.0",
    "time_elapsed": 243868
  },
  {
    "rt": null,
    "response_type": "key",
    "key_press": null,
    "response": null,
    "avg_frame_time": 16.66333333333411,
    "center_x": 400,
    "center_y": 224.8,
    "trial_type": "psychophysics",
    "trial_index": 99,
    "plugin_version": "4.0.0",
    "time_elapsed": 244372
  },
  {
    "image1": "https://jatos.mindprobe.eu/publix/32162063-2245-444d-9eeb-a91d750597cf/dist/40dece98c751976c5ae971fb799b576a.webp",
    "image2": "https://jatos.mindprobe.eu/publix/32162063-2245-444d-9eeb-a91d750597cf/dist/a0953907ed0c4f557cc32072c240bdb4.webp",
    "grid_items": [
      {
        "letter": "",
        "color": "white"
      },
      {
        "letter": "",
        "color": "white"
      },
      {
        "letter": "",
        "color": "white"
      },
      {
        "letter": "",
        "color": "white"
      },
      {
        "letter": "K",
        "color": "black"
      },
      {
        "letter": "B",
        "color": "black"
      },
      {
        "letter": "R",
        "color": "black"
      },
      {
        "letter": "S",
        "color": "black"
      }
    ],
    "target": {
      "letter": "S",
      "color": "black"
    },
    "gaze_direction": "right",
    "grid_position": "right",
    "target_type": "valid",
    "block": "block-1",
    "face": "b",
    "window": {
      "dimensions": [
        864,
        1536
      ],
      "isFullscreen": "BODY"
    },
    "rt": 483,
    "response_type": "key",
    "key_press": "ArrowUp",
    "response": "ArrowUp",
    "avg_frame_time": 16.883478260869488,
    "center_x": 400,
    "center_y": 224.8,
    "trial_type": "psychophysics",
    "trial_index": 100,
    "plugin_version": "4.0.0",
    "time_elapsed": 248306
  },
  {
    "rt": null,
    "response_type": "key",
    "key_press": null,
    "response": null,
    "avg_frame_time": 16.665517241378907,
    "center_x": 400,
    "center_y": 224.8,
    "trial_type": "psychophysics",
    "trial_index": 101,
    "plugin_version": "4.0.0",
    "time_elapsed": 248811
  },
  {
    "image1": "https://jatos.mindprobe.eu/publix/32162063-2245-444d-9eeb-a91d750597cf/dist/1d4fc1100b57f312ef6f7e81e8502a85.webp",
    "image2": "https://jatos.mindprobe.eu/publix/32162063-2245-444d-9eeb-a91d750597cf/dist/7aa52bcb2291ad2c1eab0a1c309e9ebe.webp",
    "grid_items": [
      {
        "letter": "",
        "color": "white"
      },
      {
        "letter": "",
        "color": "white"
      },
      {
        "letter": "",
        "color": "white"
      },
      {
        "letter": "",
        "color": "white"
      },
      {
        "letter": "G",
        "color": "black"
      },
      {
        "letter": "D",
        "color": "black"
      },
      {
        "letter": "H",
        "color": "black"
      },
      {
        "letter": "C",
        "color": "black"
      }
    ],
    "target": {
      "letter": "G",
      "color": "black"
    },
    "gaze_direction": "left",
    "grid_position": "right",
    "target_type": "valid",
    "block": "block-1",
    "face": "e",
    "window": {
      "dimensions": [
        864,
        1536
      ],
      "isFullscreen": "BODY"
    },
    "rt": 1235,
    "response_type": "key",
    "key_press": "ArrowDown",
    "response": "ArrowDown",
    "avg_frame_time": 16.787318840579772,
    "center_x": 400,
    "center_y": 224.8,
    "trial_type": "psychophysics",
    "trial_index": 102,
    "plugin_version": "4.0.0",
    "time_elapsed": 253503
  },
  {
    "rt": null,
    "response_type": "key",
    "key_press": null,
    "response": null,
    "avg_frame_time": 16.666666666666668,
    "center_x": 400,
    "center_y": 224.8,
    "trial_type": "psychophysics",
    "trial_index": 103,
    "plugin_version": "4.0.0",
    "time_elapsed": 254010
  },
  {
    "image1": "https://jatos.mindprobe.eu/publix/32162063-2245-444d-9eeb-a91d750597cf/dist/0738b36f5c5284a1fbe6de5047928226.webp",
    "image2": "https://jatos.mindprobe.eu/publix/32162063-2245-444d-9eeb-a91d750597cf/dist/c2c6af7a7e254bf30109d9388b53b5d8.webp",
    "grid_items": [
      {
        "letter": "",
        "color": "white"
      },
      {
        "letter": "",
        "color": "white"
      },
      {
        "letter": "",
        "color": "white"
      },
      {
        "letter": "",
        "color": "white"
      },
      {
        "letter": "N",
        "color": "black"
      },
      {
        "letter": "S",
        "color": "black"
      },
      {
        "letter": "B",
        "color": "black"
      },
      {
        "letter": "R",
        "color": "black"
      }
    ],
    "target": {
      "letter": "P",
      "color": "black"
    },
    "gaze_direction": "left",
    "grid_position": "right",
    "target_type": "invalid",
    "block": "block-1",
    "face": "d",
    "window": {
      "dimensions": [
        864,
        1536
      ],
      "isFullscreen": "BODY"
    },
    "rt": 690,
    "response_type": "key",
    "key_press": "ArrowDown",
    "response": "ArrowDown",
    "avg_frame_time": 16.802459016393513,
    "center_x": 400,
    "center_y": 224.8,
    "trial_type": "psychophysics",
    "trial_index": 104,
    "plugin_version": "4.0.0",
    "time_elapsed": 258156
  },
  {
    "rt": null,
    "response_type": "key",
    "key_press": null,
    "response": null,
    "avg_frame_time": 16.662068965517644,
    "center_x": 400,
    "center_y": 224.8,
    "trial_type": "psychophysics",
    "trial_index": 105,
    "plugin_version": "4.0.0",
    "time_elapsed": 258661
  },
  {
    "image1": "https://jatos.mindprobe.eu/publix/32162063-2245-444d-9eeb-a91d750597cf/dist/b2b7faaf2a59bb4bdfcb862858551c57.webp",
    "image2": "https://jatos.mindprobe.eu/publix/32162063-2245-444d-9eeb-a91d750597cf/dist/a2b978bad27da55c204371f73357f1d7.webp",
    "grid_items": [
      {
        "letter": "",
        "color": "white"
      },
      {
        "letter": "",
        "color": "white"
      },
      {
        "letter": "",
        "color": "white"
      },
      {
        "letter": "",
        "color": "white"
      },
      {
        "letter": "T",
        "color": "black"
      },
      {
        "letter": "G",
        "color": "black"
      },
      {
        "letter": "F",
        "color": "black"
      },
      {
        "letter": "N",
        "color": "black"
      }
    ],
    "target": {
      "letter": "G",
      "color": "black"
    },
    "gaze_direction": "left",
    "grid_position": "right",
    "target_type": "valid",
    "block": "block-1",
    "face": "a",
    "window": {
      "dimensions": [
        864,
        1536
      ],
      "isFullscreen": "BODY"
    },
    "rt": 646,
    "response_type": "key",
    "key_press": "ArrowUp",
    "response": "ArrowUp",
    "avg_frame_time": 16.66584362139913,
    "center_x": 400,
    "center_y": 224.8,
    "trial_type": "psychophysics",
    "trial_index": 106,
    "plugin_version": "4.0.0",
    "time_elapsed": 262761
  },
  {
    "rt": null,
    "response_type": "key",
    "key_press": null,
    "response": null,
    "avg_frame_time": 16.668965517240174,
    "center_x": 400,
    "center_y": 224.8,
    "trial_type": "psychophysics",
    "trial_index": 107,
    "plugin_version": "4.0.0",
    "time_elapsed": 263267
  },
  {
    "image1": "https://jatos.mindprobe.eu/publix/32162063-2245-444d-9eeb-a91d750597cf/dist/1d4fc1100b57f312ef6f7e81e8502a85.webp",
    "image2": "https://jatos.mindprobe.eu/publix/32162063-2245-444d-9eeb-a91d750597cf/dist/f133a138299afe57854b3487f1de2960.webp",
    "grid_items": [
      {
        "letter": "B",
        "color": "black"
      },
      {
        "letter": "M",
        "color": "black"
      },
      {
        "letter": "F",
        "color": "black"
      },
      {
        "letter": "P",
        "color": "black"
      },
      {
        "letter": "",
        "color": "white"
      },
      {
        "letter": "",
        "color": "white"
      },
      {
        "letter": "",
        "color": "white"
      },
      {
        "letter": "",
        "color": "white"
      }
    ],
    "target": {
      "letter": "P",
      "color": "black"
    },
    "gaze_direction": "right",
    "grid_position": "left",
    "target_type": "valid",
    "block": "block-1",
    "face": "e",
    "window": {
      "dimensions": [
        864,
        1536
      ],
      "isFullscreen": "BODY"
    },
    "rt": 1086,
    "response_type": "key",
    "key_press": "ArrowDown",
    "response": "ArrowDown",
    "avg_frame_time": 16.72835820895505,
    "center_x": 400,
    "center_y": 224.8,
    "trial_type": "psychophysics",
    "trial_index": 108,
    "plugin_version": "4.0.0",
    "time_elapsed": 267827
  },
  {
    "rt": null,
    "response_type": "key",
    "key_press": null,
    "response": null,
    "avg_frame_time": 16.665517241378907,
    "center_x": 400,
    "center_y": 224.8,
    "trial_type": "psychophysics",
    "trial_index": 109,
    "plugin_version": "4.0.0",
    "time_elapsed": 268333
  },
  {
    "image1": "https://jatos.mindprobe.eu/publix/32162063-2245-444d-9eeb-a91d750597cf/dist/d429c5287be0e7ceba842a59a42841aa.webp",
    "image2": "https://jatos.mindprobe.eu/publix/32162063-2245-444d-9eeb-a91d750597cf/dist/7c19086664cedcdfc2bed264c3b04bfa.webp",
    "grid_items": [
      {
        "letter": "",
        "color": "white"
      },
      {
        "letter": "",
        "color": "white"
      },
      {
        "letter": "",
        "color": "white"
      },
      {
        "letter": "",
        "color": "white"
      },
      {
        "letter": "P",
        "color": "black"
      },
      {
        "letter": "T",
        "color": "black"
      },
      {
        "letter": "S",
        "color": "black"
      },
      {
        "letter": "M",
        "color": "black"
      }
    ],
    "target": {
      "letter": "T",
      "color": "black"
    },
    "gaze_direction": "left",
    "grid_position": "right",
    "target_type": "valid",
    "block": "block-1",
    "face": "f",
    "window": {
      "dimensions": [
        864,
        1536
      ],
      "isFullscreen": "BODY"
    },
    "rt": 591,
    "response_type": "key",
    "key_press": "ArrowUp",
    "response": "ArrowUp",
    "avg_frame_time": 16.666108786610927,
    "center_x": 400,
    "center_y": 224.8,
    "trial_type": "psychophysics",
    "trial_index": 110,
    "plugin_version": "4.0.0",
    "time_elapsed": 272376
  },
  {
    "rt": null,
    "response_type": "key",
    "key_press": null,
    "response": null,
    "avg_frame_time": 16.662068965517644,
    "center_x": 400,
    "center_y": 224.8,
    "trial_type": "psychophysics",
    "trial_index": 111,
    "plugin_version": "4.0.0",
    "time_elapsed": 272885
  },
  {
    "image1": "https://jatos.mindprobe.eu/publix/32162063-2245-444d-9eeb-a91d750597cf/dist/0738b36f5c5284a1fbe6de5047928226.webp",
    "image2": "https://jatos.mindprobe.eu/publix/32162063-2245-444d-9eeb-a91d750597cf/dist/c2c6af7a7e254bf30109d9388b53b5d8.webp",
    "grid_items": [
      {
        "letter": "",
        "color": "white"
      },
      {
        "letter": "",
        "color": "white"
      },
      {
        "letter": "",
        "color": "white"
      },
      {
        "letter": "",
        "color": "white"
      },
      {
        "letter": "R",
        "color": "black"
      },
      {
        "letter": "M",
        "color": "black"
      },
      {
        "letter": "B",
        "color": "black"
      },
      {
        "letter": "P",
        "color": "black"
      }
    ],
    "target": {
      "letter": "M",
      "color": "black"
    },
    "gaze_direction": "left",
    "grid_position": "right",
    "target_type": "valid",
    "block": "block-1",
    "face": "d",
    "window": {
      "dimensions": [
        864,
        1536
      ],
      "isFullscreen": "BODY"
    },
    "rt": 789,
    "response_type": "key",
    "key_press": "ArrowUp",
    "response": "ArrowUp",
    "avg_frame_time": 16.666533864541787,
    "center_x": 400,
    "center_y": 224.8,
    "trial_type": "psychophysics",
    "trial_index": 112,
    "plugin_version": "4.0.0",
    "time_elapsed": 277144
  },
  {
    "rt": null,
    "response_type": "key",
    "key_press": null,
    "response": null,
    "avg_frame_time": 16.665517241378907,
    "center_x": 400,
    "center_y": 224.8,
    "trial_type": "psychophysics",
    "trial_index": 113,
    "plugin_version": "4.0.0",
    "time_elapsed": 277650
  },
  {
    "image1": "https://jatos.mindprobe.eu/publix/32162063-2245-444d-9eeb-a91d750597cf/dist/40dece98c751976c5ae971fb799b576a.webp",
    "image2": "https://jatos.mindprobe.eu/publix/32162063-2245-444d-9eeb-a91d750597cf/dist/539bb0274850bc5c179b9239bd4821e4.webp",
    "grid_items": [
      {
        "letter": "",
        "color": "white"
      },
      {
        "letter": "",
        "color": "white"
      },
      {
        "letter": "",
        "color": "white"
      },
      {
        "letter": "",
        "color": "white"
      },
      {
        "letter": "B",
        "color": "black"
      },
      {
        "letter": "L",
        "color": "black"
      },
      {
        "letter": "T",
        "color": "black"
      },
      {
        "letter": "H",
        "color": "black"
      }
    ],
    "target": {
      "letter": "L",
      "color": "black"
    },
    "gaze_direction": "left",
    "grid_position": "right",
    "target_type": "valid",
    "block": "block-1",
    "face": "b",
    "window": {
      "dimensions": [
        864,
        1536
      ],
      "isFullscreen": "BODY"
    },
    "rt": 472,
    "response_type": "key",
    "key_press": "ArrowUp",
    "response": "ArrowUp",
    "avg_frame_time": 16.73793103448281,
    "center_x": 400,
    "center_y": 224.8,
    "trial_type": "psychophysics",
    "trial_index": 114,
    "plugin_version": "4.0.0",
    "time_elapsed": 281573
  },
  {
    "rt": null,
    "response_type": "key",
    "key_press": null,
    "response": null,
    "avg_frame_time": 16.665517241378907,
    "center_x": 400,
    "center_y": 224.8,
    "trial_type": "psychophysics",
    "trial_index": 115,
    "plugin_version": "4.0.0",
    "time_elapsed": 282078
  },
  {
    "image1": "https://jatos.mindprobe.eu/publix/32162063-2245-444d-9eeb-a91d750597cf/dist/40dece98c751976c5ae971fb799b576a.webp",
    "image2": "https://jatos.mindprobe.eu/publix/32162063-2245-444d-9eeb-a91d750597cf/dist/539bb0274850bc5c179b9239bd4821e4.webp",
    "grid_items": [
      {
        "letter": "P",
        "color": "black"
      },
      {
        "letter": "F",
        "color": "black"
      },
      {
        "letter": "D",
        "color": "black"
      },
      {
        "letter": "N",
        "color": "black"
      },
      {
        "letter": "",
        "color": "white"
      },
      {
        "letter": "",
        "color": "white"
      },
      {
        "letter": "",
        "color": "white"
      },
      {
        "letter": "",
        "color": "white"
      }
    ],
    "target": {
      "letter": "M",
      "color": "black"
    },
    "gaze_direction": "left",
    "grid_position": "left",
    "target_type": "invalid",
    "block": "block-1",
    "face": "b",
    "window": {
      "dimensions": [
        864,
        1536
      ],
      "isFullscreen": "BODY"
    },
    "rt": 1125,
    "response_type": "key",
    "key_press": "ArrowUp",
    "response": "ArrowUp",
    "avg_frame_time": 16.66617647058828,
    "center_x": 400,
    "center_y": 224.8,
    "trial_type": "psychophysics",
    "trial_index": 116,
    "plugin_version": "4.0.0",
    "time_elapsed": 286659
  },
  {
    "rt": null,
    "response_type": "key",
    "key_press": null,
    "response": null,
    "avg_frame_time": 16.66896551724218,
    "center_x": 400,
    "center_y": 224.8,
    "trial_type": "psychophysics",
    "trial_index": 117,
    "plugin_version": "4.0.0",
    "time_elapsed": 287165
  },
  {
    "image1": "https://jatos.mindprobe.eu/publix/32162063-2245-444d-9eeb-a91d750597cf/dist/1d4fc1100b57f312ef6f7e81e8502a85.webp",
    "image2": "https://jatos.mindprobe.eu/publix/32162063-2245-444d-9eeb-a91d750597cf/dist/f133a138299afe57854b3487f1de2960.webp",
    "grid_items": [
      {
        "letter": "H",
        "color": "black"
      },
      {
        "letter": "C",
        "color": "black"
      },
      {
        "letter": "N",
        "color": "black"
      },
      {
        "letter": "B",
        "color": "black"
      },
      {
        "letter": "",
        "color": "white"
      },
      {
        "letter": "",
        "color": "white"
      },
      {
        "letter": "",
        "color": "white"
      },
      {
        "letter": "",
        "color": "white"
      }
    ],
    "target": {
      "letter": "K",
      "color": "black"
    },
    "gaze_direction": "right",
    "grid_position": "left",
    "target_type": "invalid",
    "block": "block-1",
    "face": "e",
    "window": {
      "dimensions": [
        864,
        1536
      ],
      "isFullscreen": "BODY"
    },
    "rt": 829,
    "response_type": "key",
    "key_press": "ArrowDown",
