[
  {
    "success": true,
    "timeout": false,
    "failed_images": [],
    "failed_audio": [],
    "failed_video": [],
    "trial_type": "preload",
    "trial_index": 0,
    "plugin_version": "2.1.0",
    "time_elapsed": 113
  },
  {
    "rt": 4707,
    "response": " ",
    "trial_type": "html-keyboard-response",
    "trial_index": 1,
    "plugin_version": "2.1.0",
    "time_elapsed": 4821
  },
  {
    "image1": "https://jatos.mindprobe.eu/publix/dc5cc523-e135-47a0-8729-15898506814c/dist/d429c5287be0e7ceba842a59a42841aa.webp",
    "image2": "https://jatos.mindprobe.eu/publix/dc5cc523-e135-47a0-8729-15898506814c/dist/9e284198aaef8c500a1145e962e8a4d0.webp",
    "grid_items": [
      {
        "letter": "",
        "color": "white"
      },
      {
        "letter": "",
        "color": "white"
      },
      {
        "letter": "",
        "color": "white"
      },
      {
        "letter": "",
        "color": "white"
      },
      {
        "letter": "D",
        "color": "black"
      },
      {
        "letter": "C",
        "color": "black"
      },
      {
        "letter": "R",
        "color": "black"
      },
      {
        "letter": "B",
        "color": "black"
      }
    ],
    "target": {
      "letter": "R",
      "color": "black"
    },
    "gaze_direction": "right",
    "grid_position": "right",
    "target_type": "valid",
    "block": "practice",
    "face": "f",
    "window": {
      "dimensions": [
        1080,
        1920
      ],
      "isFullscreen": "BODY"
    },
    "rt": 1064,
    "response_type": "key",
    "key_press": "ArrowDown",
    "response": "ArrowDown",
    "avg_frame_time": 6.945878693623641,
    "center_x": 400,
    "center_y": 225,
    "trial_type": "psychophysics",
    "trial_index": 2,
    "plugin_version": "4.0.0",
    "time_elapsed": 9291
  },
  {
    "rt": null,
    "response_type": "key",
    "key_press": null,
    "response": null,
    "avg_frame_time": 6.946478873239421,
    "center_x": 400,
    "center_y": 225,
    "trial_type": "psychophysics",
    "trial_index": 3,
    "plugin_version": "4.0.0",
    "time_elapsed": 9796
  },
  {
    "image1": "https://jatos.mindprobe.eu/publix/dc5cc523-e135-47a0-8729-15898506814c/dist/40dece98c751976c5ae971fb799b576a.webp",
    "image2": "https://jatos.mindprobe.eu/publix/dc5cc523-e135-47a0-8729-15898506814c/dist/539bb0274850bc5c179b9239bd4821e4.webp",
    "grid_items": [
      {
        "letter": "",
        "color": "white"
      },
      {
        "letter": "",
        "color": "white"
      },
      {
        "letter": "",
        "color": "white"
      },
      {
        "letter": "",
        "color": "white"
      },
      {
        "letter": "T",
        "color": "black"
      },
      {
        "letter": "G",
        "color": "black"
      },
      {
        "letter": "R",
        "color": "black"
      },
      {
        "letter": "D",
        "color": "black"
      }
    ],
    "target": {
      "letter": "H",
      "color": "black"
    },
    "gaze_direction": "left",
    "grid_position": "right",
    "target_type": "invalid",
    "block": "practice",
    "face": "b",
    "window": {
      "dimensions": [
        1080,
        1920
      ],
      "isFullscreen": "BODY"
    },
    "rt": 903,
    "response_type": "key",
    "key_press": "ArrowUp",
    "response": "ArrowUp",
    "avg_frame_time": 6.945557350565427,
    "center_x": 400,
    "center_y": 225,
    "trial_type": "psychophysics",
    "trial_index": 4,
    "plugin_version": "4.0.0",
    "time_elapsed": 14104
  },
  {
    "rt": null,
    "response_type": "key",
    "key_press": null,
    "response": null,
    "avg_frame_time": 6.945070422535216,
    "center_x": 400,
    "center_y": 225,
    "trial_type": "psychophysics",
    "trial_index": 5,
    "plugin_version": "4.0.0",
    "time_elapsed": 14605
  },
  {
    "image1": "https://jatos.mindprobe.eu/publix/dc5cc523-e135-47a0-8729-15898506814c/dist/36ce3cf01c34ab194e87cdb81ee9890f.webp",
    "image2": "https://jatos.mindprobe.eu/publix/dc5cc523-e135-47a0-8729-15898506814c/dist/6ef25f867bb912257ed8a75458a113f3.webp",
    "grid_items": [
      {
        "letter": "F",
        "color": "black"
      },
      {
        "letter": "G",
        "color": "black"
      },
      {
        "letter": "R",
        "color": "black"
      },
      {
        "letter": "N",
        "color": "black"
      },
      {
        "letter": "",
        "color": "white"
      },
      {
        "letter": "",
        "color": "white"
      },
      {
        "letter": "",
        "color": "white"
      },
      {
        "letter": "",
        "color": "white"
      }
    ],
    "target": {
      "letter": "N",
      "color": "black"
    },
    "gaze_direction": "left",
    "grid_position": "left",
    "target_type": "valid",
    "block": "practice",
    "face": "c",
    "window": {
      "dimensions": [
        1080,
        1920
      ],
      "isFullscreen": "BODY"
    },
    "rt": 862,
    "response_type": "key",
    "key_press": "ArrowUp",
    "response": "ArrowUp",
    "avg_frame_time": 6.945513866231646,
    "center_x": 400,
    "center_y": 225,
    "trial_type": "psychophysics",
    "trial_index": 6,
    "plugin_version": "4.0.0",
    "time_elapsed": 18869
  },
  {
    "rt": null,
    "response_type": "key",
    "key_press": null,
    "response": null,
    "avg_frame_time": 6.948611111111101,
    "center_x": 400,
    "center_y": 225,
    "trial_type": "psychophysics",
    "trial_index": 7,
    "plugin_version": "4.0.0",
    "time_elapsed": 19375
  },
  {
    "image1": "https://jatos.mindprobe.eu/publix/dc5cc523-e135-47a0-8729-15898506814c/dist/1d4fc1100b57f312ef6f7e81e8502a85.webp",
    "image2": "https://jatos.mindprobe.eu/publix/dc5cc523-e135-47a0-8729-15898506814c/dist/7aa52bcb2291ad2c1eab0a1c309e9ebe.webp",
    "grid_items": [
      {
        "letter": "",
        "color": "white"
      },
      {
        "letter": "",
        "color": "white"
      },
      {
        "letter": "",
        "color": "white"
      },
      {
        "letter": "",
        "color": "white"
      },
      {
        "letter": "B",
        "color": "black"
      },
      {
        "letter": "L",
        "color": "black"
      },
      {
        "letter": "N",
        "color": "black"
      },
      {
        "letter": "H",
        "color": "black"
      }
    ],
    "target": {
      "letter": "N",
      "color": "black"
    },
    "gaze_direction": "left",
    "grid_position": "right",
    "target_type": "valid",
    "block": "practice",
    "face": "e",
    "window": {
      "dimensions": [
        1080,
        1920
      ],
      "isFullscreen": "BODY"
    },
    "rt": 773,
    "response_type": "key",
    "key_press": "ArrowUp",
    "response": "ArrowUp",
    "avg_frame_time": 6.945666666666669,
    "center_x": 400,
    "center_y": 225,
    "trial_type": "psychophysics",
    "trial_index": 8,
    "plugin_version": "4.0.0",
    "time_elapsed": 23551
  },
  {
    "rt": null,
    "response_type": "key",
    "key_press": null,
    "response": null,
    "avg_frame_time": 6.944444444444445,
    "center_x": 400,
    "center_y": 225,
    "trial_type": "psychophysics",
    "trial_index": 9,
    "plugin_version": "4.0.0",
    "time_elapsed": 24056
  },
  {
    "image1": "https://jatos.mindprobe.eu/publix/dc5cc523-e135-47a0-8729-15898506814c/dist/0738b36f5c5284a1fbe6de5047928226.webp",
    "image2": "https://jatos.mindprobe.eu/publix/dc5cc523-e135-47a0-8729-15898506814c/dist/48e5157934b56d46aee0926365abe09d.webp",
    "grid_items": [
      {
        "letter": "N",
        "color": "black"
      },
      {
        "letter": "L",
        "color": "black"
      },
      {
        "letter": "D",
        "color": "black"
      },
      {
        "letter": "P",
        "color": "black"
      },
      {
        "letter": "",
        "color": "white"
      },
      {
        "letter": "",
        "color": "white"
      },
      {
        "letter": "",
        "color": "white"
      },
      {
        "letter": "",
        "color": "white"
      }
    ],
    "target": {
      "letter": "G",
      "color": "black"
    },
    "gaze_direction": "right",
    "grid_position": "left",
    "target_type": "invalid",
    "block": "practice",
    "face": "d",
    "window": {
      "dimensions": [
        1080,
        1920
      ],
      "isFullscreen": "BODY"
    },
    "rt": 714,
    "response_type": "key",
    "key_press": "ArrowDown",
    "response": "ArrowDown",
    "avg_frame_time": 6.945685279187813,
    "center_x": 400,
    "center_y": 225,
    "trial_type": "psychophysics",
    "trial_index": 10,
    "plugin_version": "4.0.0",
    "time_elapsed": 28174
  },
  {
    "rt": null,
    "response_type": "key",
    "key_press": null,
    "response": null,
    "avg_frame_time": 6.945070422535242,
    "center_x": 400,
    "center_y": 225,
    "trial_type": "psychophysics",
    "trial_index": 11,
    "plugin_version": "4.0.0",
    "time_elapsed": 28675
  },
  {
    "image1": "https://jatos.mindprobe.eu/publix/dc5cc523-e135-47a0-8729-15898506814c/dist/1d4fc1100b57f312ef6f7e81e8502a85.webp",
    "image2": "https://jatos.mindprobe.eu/publix/dc5cc523-e135-47a0-8729-15898506814c/dist/f133a138299afe57854b3487f1de2960.webp",
    "grid_items": [
      {
        "letter": "",
        "color": "white"
      },
      {
        "letter": "",
        "color": "white"
      },
      {
        "letter": "",
        "color": "white"
      },
      {
        "letter": "",
        "color": "white"
      },
      {
        "letter": "K",
        "color": "black"
      },
      {
        "letter": "T",
        "color": "black"
      },
      {
        "letter": "H",
        "color": "black"
      },
      {
        "letter": "C",
        "color": "black"
      }
    ],
    "target": {
      "letter": "D",
      "color": "black"
    },
    "gaze_direction": "right",
    "grid_position": "right",
    "target_type": "invalid",
    "block": "practice",
    "face": "e",
    "window": {
      "dimensions": [
        1080,
        1920
      ],
      "isFullscreen": "BODY"
    },
    "rt": 1211,
    "response_type": "key",
    "key_press": "ArrowDown",
    "response": "ArrowDown",
    "avg_frame_time": 6.945701357466069,
    "center_x": 400,
    "center_y": 225,
    "trial_type": "psychophysics",
    "trial_index": 12,
    "plugin_version": "4.0.0",
    "time_elapsed": 33289
  },
  {
    "rt": null,
    "response_type": "key",
    "key_press": null,
    "response": null,
    "avg_frame_time": 6.947887323943703,
    "center_x": 400,
    "center_y": 225,
    "trial_type": "psychophysics",
    "trial_index": 13,
    "plugin_version": "4.0.0",
    "time_elapsed": 33790
  },
  {
    "image1": "https://jatos.mindprobe.eu/publix/dc5cc523-e135-47a0-8729-15898506814c/dist/40dece98c751976c5ae971fb799b576a.webp",
    "image2": "https://jatos.mindprobe.eu/publix/dc5cc523-e135-47a0-8729-15898506814c/dist/539bb0274850bc5c179b9239bd4821e4.webp",
    "grid_items": [
      {
        "letter": "",
        "color": "white"
      },
      {
        "letter": "",
        "color": "white"
      },
      {
        "letter": "",
        "color": "white"
      },
      {
        "letter": "",
        "color": "white"
      },
      {
        "letter": "L",
        "color": "black"
      },
      {
        "letter": "M",
        "color": "black"
      },
      {
        "letter": "B",
        "color": "black"
      },
      {
        "letter": "S",
        "color": "black"
      }
    ],
    "target": {
      "letter": "B",
      "color": "black"
    },
    "gaze_direction": "left",
    "grid_position": "right",
    "target_type": "valid",
    "block": "practice",
    "face": "b",
    "window": {
      "dimensions": [
        1080,
        1920
      ],
      "isFullscreen": "BODY"
    },
    "rt": 705,
    "response_type": "key",
    "key_press": "ArrowUp",
    "response": "ArrowUp",
    "avg_frame_time": 6.94593220338984,
    "center_x": 400,
    "center_y": 225,
    "trial_type": "psychophysics",
    "trial_index": 14,
    "plugin_version": "4.0.0",
    "time_elapsed": 37899
  },
  {
    "rt": null,
    "response_type": "key",
    "key_press": null,
    "response": null,
    "avg_frame_time": 6.945833333333415,
    "center_x": 400,
    "center_y": 225,
    "trial_type": "psychophysics",
    "trial_index": 15,
    "plugin_version": "4.0.0",
    "time_elapsed": 38400
  },
  {
    "image1": "https://jatos.mindprobe.eu/publix/dc5cc523-e135-47a0-8729-15898506814c/dist/b2b7faaf2a59bb4bdfcb862858551c57.webp",
    "image2": "https://jatos.mindprobe.eu/publix/dc5cc523-e135-47a0-8729-15898506814c/dist/afa6e6b610b3cab6c6b449a4e2dd4d02.webp",
    "grid_items": [
      {
        "letter": "G",
        "color": "black"
      },
      {
        "letter": "T",
        "color": "black"
      },
      {
        "letter": "L",
        "color": "black"
      },
      {
        "letter": "D",
        "color": "black"
      },
      {
        "letter": "",
        "color": "white"
      },
      {
        "letter": "",
        "color": "white"
      },
      {
        "letter": "",
        "color": "white"
      },
      {
        "letter": "",
        "color": "white"
      }
    ],
    "target": {
      "letter": "K",
      "color": "black"
    },
    "gaze_direction": "right",
    "grid_position": "left",
    "target_type": "invalid",
    "block": "practice",
    "face": "a",
    "window": {
      "dimensions": [
        1080,
        1920
      ],
      "isFullscreen": "BODY"
    },
    "rt": 942,
    "response_type": "key",
    "key_press": "ArrowDown",
    "response": "ArrowDown",
    "avg_frame_time": 6.945673076923086,
    "center_x": 400,
    "center_y": 225,
    "trial_type": "psychophysics",
    "trial_index": 16,
    "plugin_version": "4.0.0",
    "time_elapsed": 42746
  },
  {
    "rt": null,
    "response_type": "key",
    "key_press": null,
    "response": null,
    "avg_frame_time": 6.947887323943703,
    "center_x": 400,
    "center_y": 225,
    "trial_type": "psychophysics",
    "trial_index": 17,
    "plugin_version": "4.0.0",
    "time_elapsed": 43247
  },
  {
    "image1": "https://jatos.mindprobe.eu/publix/dc5cc523-e135-47a0-8729-15898506814c/dist/36ce3cf01c34ab194e87cdb81ee9890f.webp",
    "image2": "https://jatos.mindprobe.eu/publix/dc5cc523-e135-47a0-8729-15898506814c/dist/6ef25f867bb912257ed8a75458a113f3.webp",
    "grid_items": [
      {
        "letter": "",
        "color": "white"
      },
      {
        "letter": "",
        "color": "white"
      },
      {
        "letter": "",
        "color": "white"
      },
      {
        "letter": "",
        "color": "white"
      },
      {
        "letter": "G",
        "color": "black"
      },
      {
        "letter": "S",
        "color": "black"
      },
      {
        "letter": "R",
        "color": "black"
      },
      {
        "letter": "P",
        "color": "black"
      }
    ],
    "target": {
      "letter": "F",
      "color": "black"
    },
    "gaze_direction": "left",
    "grid_position": "right",
    "target_type": "invalid",
    "block": "practice",
    "face": "c",
    "window": {
      "dimensions": [
        1080,
        1920
      ],
      "isFullscreen": "BODY"
    },
    "rt": 747,
    "response_type": "key",
    "key_press": "ArrowDown",
    "response": "ArrowDown",
    "avg_frame_time": 6.945637583892627,
    "center_x": 400,
    "center_y": 225,
    "trial_type": "psychophysics",
    "trial_index": 18,
    "plugin_version": "4.0.0",
    "time_elapsed": 47397
  },
  {
    "rt": null,
    "response_type": "key",
    "key_press": null,
    "response": null,
    "avg_frame_time": 6.943661971830986,
    "center_x": 400,
    "center_y": 225,
    "trial_type": "psychophysics",
    "trial_index": 19,
    "plugin_version": "4.0.0",
    "time_elapsed": 47898
  },
  {
    "image1": "https://jatos.mindprobe.eu/publix/dc5cc523-e135-47a0-8729-15898506814c/dist/0738b36f5c5284a1fbe6de5047928226.webp",
    "image2": "https://jatos.mindprobe.eu/publix/dc5cc523-e135-47a0-8729-15898506814c/dist/48e5157934b56d46aee0926365abe09d.webp",
    "grid_items": [
      {
        "letter": "",
        "color": "white"
      },
      {
        "letter": "",
        "color": "white"
      },
      {
        "letter": "",
        "color": "white"
      },
      {
        "letter": "",
        "color": "white"
      },
      {
        "letter": "T",
        "color": "black"
      },
      {
        "letter": "H",
        "color": "black"
      },
      {
        "letter": "D",
        "color": "black"
      },
      {
        "letter": "R",
        "color": "black"
      }
    ],
    "target": {
      "letter": "T",
      "color": "black"
    },
    "gaze_direction": "right",
    "grid_position": "right",
    "target_type": "valid",
    "block": "practice",
    "face": "d",
    "window": {
      "dimensions": [
        1080,
        1920
      ],
      "isFullscreen": "BODY"
    },
    "rt": 953,
    "response_type": "key",
    "key_press": "ArrowUp",
    "response": "ArrowUp",
    "avg_frame_time": 6.945440000000002,
    "center_x": 400,
    "center_y": 225,
    "trial_type": "psychophysics",
    "trial_index": 20,
    "plugin_version": "4.0.0",
    "time_elapsed": 52255
  },
  {
    "rt": null,
    "response_type": "key",
    "key_press": null,
    "response": null,
    "avg_frame_time": 6.944444444444445,
    "center_x": 400,
    "center_y": 225,
    "trial_type": "psychophysics",
    "trial_index": 21,
    "plugin_version": "4.0.0",
    "time_elapsed": 52756
  },
  {
    "image1": "https://jatos.mindprobe.eu/publix/dc5cc523-e135-47a0-8729-15898506814c/dist/b2b7faaf2a59bb4bdfcb862858551c57.webp",
    "image2": "https://jatos.mindprobe.eu/publix/dc5cc523-e135-47a0-8729-15898506814c/dist/afa6e6b610b3cab6c6b449a4e2dd4d02.webp",
    "grid_items": [
      {
        "letter": "",
        "color": "white"
      },
      {
        "letter": "",
        "color": "white"
      },
      {
        "letter": "",
        "color": "white"
      },
      {
        "letter": "",
        "color": "white"
      },
      {
        "letter": "B",
        "color": "black"
      },
      {
        "letter": "L",
        "color": "black"
      },
      {
        "letter": "P",
        "color": "black"
      },
      {
        "letter": "D",
        "color": "black"
      }
    ],
    "target": {
      "letter": "L",
      "color": "black"
    },
    "gaze_direction": "right",
    "grid_position": "right",
    "target_type": "valid",
    "block": "practice",
    "face": "a",
    "window": {
      "dimensions": [
        1080,
        1920
      ],
      "isFullscreen": "BODY"
    },
    "rt": 789,
    "response_type": "key",
    "key_press": "ArrowUp",
    "response": "ArrowUp",
    "avg_frame_time": 6.945847176079725,
    "center_x": 400,
    "center_y": 225,
    "trial_type": "psychophysics",
    "trial_index": 22,
    "plugin_version": "4.0.0",
    "time_elapsed": 56949
  },
  {
    "rt": null,
    "response_type": "key",
    "key_press": null,
    "response": null,
    "avg_frame_time": 6.945833333333313,
    "center_x": 400,
    "center_y": 225,
    "trial_type": "psychophysics",
    "trial_index": 23,
    "plugin_version": "4.0.0",
    "time_elapsed": 57451
  },
  {
    "image1": "https://jatos.mindprobe.eu/publix/dc5cc523-e135-47a0-8729-15898506814c/dist/d429c5287be0e7ceba842a59a42841aa.webp",
    "image2": "https://jatos.mindprobe.eu/publix/dc5cc523-e135-47a0-8729-15898506814c/dist/9e284198aaef8c500a1145e962e8a4d0.webp",
    "grid_items": [
      {
        "letter": "T",
        "color": "black"
      },
      {
        "letter": "C",
        "color": "black"
      },
      {
        "letter": "G",
        "color": "black"
      },
      {
        "letter": "D",
        "color": "black"
      },
      {
        "letter": "",
        "color": "white"
      },
      {
        "letter": "",
        "color": "white"
      },
      {
        "letter": "",
        "color": "white"
      },
      {
        "letter": "",
        "color": "white"
      }
    ],
    "target": {
      "letter": "L",
      "color": "black"
    },
    "gaze_direction": "right",
    "grid_position": "left",
    "target_type": "invalid",
    "block": "practice",
    "face": "f",
    "window": {
      "dimensions": [
        1080,
        1920
      ],
      "isFullscreen": "BODY"
    },
    "rt": 768,
    "response_type": "key",
    "key_press": "ArrowDown",
    "response": "ArrowDown",
    "avg_frame_time": 6.945575959933224,
    "center_x": 400,
    "center_y": 225,
    "trial_type": "psychophysics",
    "trial_index": 24,
    "plugin_version": "4.0.0",
    "time_elapsed": 61625
  },
  {
    "rt": null,
    "response_type": "key",
    "key_press": null,
    "response": null,
    "avg_frame_time": 6.945833333333313,
    "center_x": 400,
    "center_y": 225,
    "trial_type": "psychophysics",
    "trial_index": 25,
    "plugin_version": "4.0.0",
    "time_elapsed": 62126
  },
  {
    "rt": 56,
    "response": 0,
    "trial_type": "html-button-response",
    "trial_index": 26,
    "plugin_version": "2.1.0",
    "time_elapsed": 62182
  },
  {
    "rt": 8470,
    "response": " ",
    "trial_type": "html-keyboard-response",
    "trial_index": 27,
    "plugin_version": "2.1.0",
    "time_elapsed": 70653
  },
  {
    "image1": "https://jatos.mindprobe.eu/publix/dc5cc523-e135-47a0-8729-15898506814c/dist/40dece98c751976c5ae971fb799b576a.webp",
    "image2": "https://jatos.mindprobe.eu/publix/dc5cc523-e135-47a0-8729-15898506814c/dist/a0953907ed0c4f557cc32072c240bdb4.webp",
    "grid_items": [
      {
        "letter": "G",
        "color": "black"
      },
      {
        "letter": "H",
        "color": "black"
      },
      {
        "letter": "M",
        "color": "black"
      },
      {
        "letter": "L",
        "color": "black"
      },
      {
        "letter": "",
        "color": "white"
      },
      {
        "letter": "",
        "color": "white"
      },
      {
        "letter": "",
        "color": "white"
      },
      {
        "letter": "",
        "color": "white"
      }
    ],
    "target": {
      "letter": "N",
      "color": "black"
    },
    "gaze_direction": "right",
    "grid_position": "left",
    "target_type": "invalid",
    "block": "block-1",
    "face": "b",
    "window": {
      "dimensions": [
        1080,
        1920
      ],
      "isFullscreen": "BODY"
    },
    "rt": 806,
    "response_type": "key",
    "key_press": "ArrowDown",
    "response": "ArrowDown",
    "avg_frame_time": 6.945529801324513,
    "center_x": 400,
    "center_y": 225,
    "trial_type": "psychophysics",
    "trial_index": 28,
    "plugin_version": "4.0.0",
    "time_elapsed": 74861
  },
  {
    "rt": null,
    "response_type": "key",
    "key_press": null,
    "response": null,
    "avg_frame_time": 6.945070422535293,
    "center_x": 400,
    "center_y": 225,
    "trial_type": "psychophysics",
    "trial_index": 29,
    "plugin_version": "4.0.0",
    "time_elapsed": 75362
  },
  {
    "image1": "https://jatos.mindprobe.eu/publix/dc5cc523-e135-47a0-8729-15898506814c/dist/1d4fc1100b57f312ef6f7e81e8502a85.webp",
    "image2": "https://jatos.mindprobe.eu/publix/dc5cc523-e135-47a0-8729-15898506814c/dist/7aa52bcb2291ad2c1eab0a1c309e9ebe.webp",
    "grid_items": [
      {
        "letter": "",
        "color": "white"
      },
      {
        "letter": "",
        "color": "white"
      },
      {
        "letter": "",
        "color": "white"
      },
      {
        "letter": "",
        "color": "white"
      },
      {
        "letter": "R",
        "color": "black"
      },
      {
        "letter": "F",
        "color": "black"
      },
      {
        "letter": "D",
        "color": "black"
      },
      {
        "letter": "H",
        "color": "black"
      }
    ],
    "target": {
      "letter": "R",
      "color": "black"
    },
    "gaze_direction": "left",
    "grid_position": "right",
    "target_type": "valid",
    "block": "block-1",
    "face": "e",
    "window": {
      "dimensions": [
        1080,
        1920
      ],
      "isFullscreen": "BODY"
    },
    "rt": 882,
    "response_type": "key",
    "key_press": "ArrowUp",
    "response": "ArrowUp",
    "avg_frame_time": 6.945365853658551,
    "center_x": 400,
    "center_y": 225,
    "trial_type": "psychophysics",
    "trial_index": 30,
    "plugin_version": "4.0.0",
    "time_elapsed": 79647
  },
  {
    "rt": null,
    "response_type": "key",
    "key_press": null,
    "response": null,
    "avg_frame_time": 6.947887323943703,
    "center_x": 400,
    "center_y": 225,
    "trial_type": "psychophysics",
    "trial_index": 31,
    "plugin_version": "4.0.0",
    "time_elapsed": 80148
  },
  {
    "image1": "https://jatos.mindprobe.eu/publix/dc5cc523-e135-47a0-8729-15898506814c/dist/d429c5287be0e7ceba842a59a42841aa.webp",
    "image2": "https://jatos.mindprobe.eu/publix/dc5cc523-e135-47a0-8729-15898506814c/dist/7c19086664cedcdfc2bed264c3b04bfa.webp",
    "grid_items": [
      {
        "letter": "",
        "color": "white"
      },
      {
        "letter": "",
        "color": "white"
      },
      {
        "letter": "",
        "color": "white"
      },
      {
        "letter": "",
        "color": "white"
      },
      {
        "letter": "K",
        "color": "black"
      },
      {
        "letter": "D",
        "color": "black"
      },
      {
        "letter": "M",
        "color": "black"
      },
      {
        "letter": "P",
        "color": "black"
      }
    ],
    "target": {
      "letter": "C",
      "color": "black"
    },
    "gaze_direction": "left",
    "grid_position": "right",
    "target_type": "invalid",
    "block": "block-1",
    "face": "f",
    "window": {
      "dimensions": [
        1080,
        1920
      ],
      "isFullscreen": "BODY"
    },
    "rt": 820,
    "response_type": "key",
    "key_press": "ArrowDown",
    "response": "ArrowDown",
    "avg_frame_time": 6.9457095709571055,
    "center_x": 400,
    "center_y": 225,
    "trial_type": "psychophysics",
    "trial_index": 32,
    "plugin_version": "4.0.0",
    "time_elapsed": 84370
  },
  {
    "rt": null,
    "response_type": "key",
    "key_press": null,
    "response": null,
    "avg_frame_time": 6.946478873239601,
    "center_x": 400,
    "center_y": 225,
    "trial_type": "psychophysics",
    "trial_index": 33,
    "plugin_version": "4.0.0",
    "time_elapsed": 84871
  },
  {
    "image1": "https://jatos.mindprobe.eu/publix/dc5cc523-e135-47a0-8729-15898506814c/dist/b2b7faaf2a59bb4bdfcb862858551c57.webp",
    "image2": "https://jatos.mindprobe.eu/publix/dc5cc523-e135-47a0-8729-15898506814c/dist/afa6e6b610b3cab6c6b449a4e2dd4d02.webp",
    "grid_items": [
      {
        "letter": "",
        "color": "white"
      },
      {
        "letter": "",
        "color": "white"
      },
      {
        "letter": "",
        "color": "white"
      },
      {
        "letter": "",
        "color": "white"
      },
      {
        "letter": "K",
        "color": "black"
      },
      {
        "letter": "H",
        "color": "black"
      },
      {
        "letter": "S",
        "color": "black"
      },
      {
        "letter": "P",
        "color": "black"
      }
    ],
    "target": {
      "letter": "R",
      "color": "black"
    },
    "gaze_direction": "right",
    "grid_position": "right",
    "target_type": "invalid",
    "block": "block-1",
    "face": "a",
    "window": {
      "dimensions": [
        1080,
        1920
      ],
      "isFullscreen": "BODY"
    },
    "rt": 990,
    "response_type": "key",
    "key_press": "ArrowDown",
    "response": "ArrowDown",
    "avg_frame_time": 6.9456418383518175,
    "center_x": 400,
    "center_y": 225,
    "trial_type": "psychophysics",
    "trial_index": 34,
    "plugin_version": "4.0.0",
    "time_elapsed": 89263
  },
  {
    "rt": null,
    "response_type": "key",
    "key_press": null,
    "response": null,
    "avg_frame_time": 6.946478873239395,
    "center_x": 400,
    "center_y": 225,
    "trial_type": "psychophysics",
    "trial_index": 35,
    "plugin_version": "4.0.0",
    "time_elapsed": 89764
  },
  {
    "image1": "https://jatos.mindprobe.eu/publix/dc5cc523-e135-47a0-8729-15898506814c/dist/36ce3cf01c34ab194e87cdb81ee9890f.webp",
    "image2": "https://jatos.mindprobe.eu/publix/dc5cc523-e135-47a0-8729-15898506814c/dist/6ef25f867bb912257ed8a75458a113f3.webp",
    "grid_items": [
      {
        "letter": "S",
        "color": "black"
      },
      {
        "letter": "K",
        "color": "black"
      },
      {
        "letter": "G",
        "color": "black"
      },
      {
        "letter": "P",
        "color": "black"
      },
      {
        "letter": "",
        "color": "white"
      },
      {
        "letter": "",
        "color": "white"
      },
      {
        "letter": "",
        "color": "white"
      },
      {
        "letter": "",
        "color": "white"
      }
    ],
    "target": {
      "letter": "D",
      "color": "black"
    },
    "gaze_direction": "left",
    "grid_position": "left",
    "target_type": "invalid",
    "block": "block-1",
    "face": "c",
    "window": {
      "dimensions": [
        1080,
        1920
      ],
      "isFullscreen": "BODY"
    },
    "rt": 795,
    "response_type": "key",
    "key_press": "ArrowDown",
    "response": "ArrowDown",
    "avg_frame_time": 6.945605306799332,
    "center_x": 400,
    "center_y": 225,
    "trial_type": "psychophysics",
    "trial_index": 36,
    "plugin_version": "4.0.0",
    "time_elapsed": 93963
  },
  {
    "rt": null,
    "response_type": "key",
    "key_press": null,
    "response": null,
    "avg_frame_time": 6.947887323943703,
    "center_x": 400,
    "center_y": 225,
    "trial_type": "psychophysics",
    "trial_index": 37,
    "plugin_version": "4.0.0",
    "time_elapsed": 94464
  },
  {
    "image1": "https://jatos.mindprobe.eu/publix/dc5cc523-e135-47a0-8729-15898506814c/dist/0738b36f5c5284a1fbe6de5047928226.webp",
    "image2": "https://jatos.mindprobe.eu/publix/dc5cc523-e135-47a0-8729-15898506814c/dist/48e5157934b56d46aee0926365abe09d.webp",
    "grid_items": [
      {
        "letter": "G",
        "color": "black"
      },
      {
        "letter": "N",
        "color": "black"
      },
      {
        "letter": "T",
        "color": "black"
      },
      {
        "letter": "F",
        "color": "black"
      },
      {
        "letter": "",
        "color": "white"
      },
      {
        "letter": "",
        "color": "white"
      },
      {
        "letter": "",
        "color": "white"
      },
      {
        "letter": "",
        "color": "white"
      }
    ],
    "target": {
      "letter": "R",
      "color": "black"
    },
    "gaze_direction": "right",
    "grid_position": "left",
    "target_type": "invalid",
    "block": "block-1",
    "face": "d",
    "window": {
      "dimensions": [
        1080,
        1920
      ],
      "isFullscreen": "BODY"
    },
    "rt": 1109,
    "response_type": "key",
    "key_press": "ArrowDown",
    "response": "ArrowDown",
    "avg_frame_time": 6.945679012345684,
    "center_x": 400,
    "center_y": 225,
    "trial_type": "psychophysics",
    "trial_index": 38,
    "plugin_version": "4.0.0",
    "time_elapsed": 98976
  },
  {
    "rt": null,
    "response_type": "key",
    "key_press": null,
    "response": null,
    "avg_frame_time": 6.946478873239395,
    "center_x": 400,
    "center_y": 225,
    "trial_type": "psychophysics",
    "trial_index": 39,
    "plugin_version": "4.0.0",
    "time_elapsed": 99476
  },
  {
    "image1": "https://jatos.mindprobe.eu/publix/dc5cc523-e135-47a0-8729-15898506814c/dist/b2b7faaf2a59bb4bdfcb862858551c57.webp",
    "image2": "https://jatos.mindprobe.eu/publix/dc5cc523-e135-47a0-8729-15898506814c/dist/afa6e6b610b3cab6c6b449a4e2dd4d02.webp",
    "grid_items": [
      {
        "letter": "",
        "color": "white"
      },
      {
        "letter": "",
        "color": "white"
      },
      {
        "letter": "",
        "color": "white"
      },
      {
        "letter": "",
        "color": "white"
      },
      {
        "letter": "D",
        "color": "black"
      },
      {
        "letter": "B",
        "color": "black"
      },
      {
        "letter": "R",
        "color": "black"
      },
      {
        "letter": "K",
        "color": "black"
      }
    ],
    "target": {
      "letter": "R",
      "color": "black"
    },
    "gaze_direction": "right",
    "grid_position": "right",
    "target_type": "valid",
    "block": "block-1",
    "face": "a",
    "window": {
      "dimensions": [
        1080,
        1920
      ],
      "isFullscreen": "BODY"
    },
    "rt": 547,
    "response_type": "key",
    "key_press": "ArrowUp",
    "response": "ArrowUp",
    "avg_frame_time": 6.945502645502656,
    "center_x": 400,
    "center_y": 225,
    "trial_type": "psychophysics",
    "trial_index": 40,
    "plugin_version": "4.0.0",
    "time_elapsed": 103427
  },
  {
    "rt": null,
    "response_type": "key",
    "key_press": null,
    "response": null,
    "avg_frame_time": 6.945070422535088,
    "center_x": 400,
    "center_y": 225,
    "trial_type": "psychophysics",
    "trial_index": 41,
    "plugin_version": "4.0.0",
    "time_elapsed": 103929
  },
  {
    "image1": "https://jatos.mindprobe.eu/publix/dc5cc523-e135-47a0-8729-15898506814c/dist/0738b36f5c5284a1fbe6de5047928226.webp",
    "image2": "https://jatos.mindprobe.eu/publix/dc5cc523-e135-47a0-8729-15898506814c/dist/48e5157934b56d46aee0926365abe09d.webp",
    "grid_items": [
      {
        "letter": "",
        "color": "white"
      },
      {
        "letter": "",
        "color": "white"
      },
      {
        "letter": "",
        "color": "white"
      },
      {
        "letter": "",
        "color": "white"
      },
      {
        "letter": "B",
        "color": "black"
      },
      {
        "letter": "F",
        "color": "black"
      },
      {
        "letter": "S",
        "color": "black"
      },
      {
        "letter": "M",
        "color": "black"
      }
    ],
    "target": {
      "letter": "L",
      "color": "black"
    },
    "gaze_direction": "right",
    "grid_position": "right",
    "target_type": "invalid",
    "block": "block-1",
    "face": "d",
    "window": {
      "dimensions": [
        1080,
        1920
      ],
      "isFullscreen": "BODY"
    },
    "rt": 769,
    "response_type": "key",
    "key_press": "ArrowDown",
    "response": "ArrowDown",
    "avg_frame_time": 6.945409015025047,
    "center_x": 400,
    "center_y": 225,
    "trial_type": "psychophysics",
    "trial_index": 42,
    "plugin_version": "4.0.0",
    "time_elapsed": 108101
  },
  {
    "rt": null,
    "response_type": "key",
    "key_press": null,
    "response": null,
    "avg_frame_time": 6.945070422535293,
    "center_x": 400,
    "center_y": 225,
    "trial_type": "psychophysics",
    "trial_index": 43,
    "plugin_version": "4.0.0",
    "time_elapsed": 108602
  },
  {
    "image1": "https://jatos.mindprobe.eu/publix/dc5cc523-e135-47a0-8729-15898506814c/dist/d429c5287be0e7ceba842a59a42841aa.webp",
    "image2": "https://jatos.mindprobe.eu/publix/dc5cc523-e135-47a0-8729-15898506814c/dist/7c19086664cedcdfc2bed264c3b04bfa.webp",
    "grid_items": [
      {
        "letter": "M",
        "color": "black"
      },
      {
        "letter": "D",
        "color": "black"
      },
      {
        "letter": "C",
        "color": "black"
      },
      {
        "letter": "H",
        "color": "black"
      },
      {
        "letter": "",
        "color": "white"
      },
      {
        "letter": "",
        "color": "white"
      },
      {
        "letter": "",
        "color": "white"
      },
      {
        "letter": "",
        "color": "white"
      }
    ],
    "target": {
      "letter": "C",
      "color": "black"
    },
    "gaze_direction": "left",
    "grid_position": "left",
    "target_type": "valid",
    "block": "block-1",
    "face": "f",
    "window": {
      "dimensions": [
        1080,
        1920
      ],
      "isFullscreen": "BODY"
    },
    "rt": 819,
    "response_type": "key",
    "key_press": "ArrowUp",
    "response": "ArrowUp",
    "avg_frame_time": 6.945874587458741,
    "center_x": 400,
    "center_y": 225,
    "trial_type": "psychophysics",
    "trial_index": 44,
    "plugin_version": "4.0.0",
    "time_elapsed": 112826
  },
  {
    "rt": null,
    "response_type": "key",
    "key_press": null,
    "response": null,
    "avg_frame_time": 6.946478873239395,
    "center_x": 400,
    "center_y": 225,
    "trial_type": "psychophysics",
    "trial_index": 45,
    "plugin_version": "4.0.0",
    "time_elapsed": 113327
  },
  {
    "image1": "https://jatos.mindprobe.eu/publix/dc5cc523-e135-47a0-8729-15898506814c/dist/1d4fc1100b57f312ef6f7e81e8502a85.webp",
    "image2": "https://jatos.mindprobe.eu/publix/dc5cc523-e135-47a0-8729-15898506814c/dist/f133a138299afe57854b3487f1de2960.webp",
    "grid_items": [
      {
        "letter": "S",
        "color": "black"
      },
      {
        "letter": "D",
        "color": "black"
      },
      {
        "letter": "P",
        "color": "black"
      },
      {
        "letter": "N",
        "color": "black"
      },
      {
        "letter": "",
        "color": "white"
      },
      {
        "letter": "",
        "color": "white"
      },
      {
        "letter": "",
        "color": "white"
      },
      {
        "letter": "",
        "color": "white"
      }
    ],
    "target": {
      "letter": "D",
      "color": "black"
    },
    "gaze_direction": "right",
    "grid_position": "left",
    "target_type": "valid",
    "block": "block-1",
    "face": "e",
    "window": {
      "dimensions": [
        1080,
        1920
      ],
      "isFullscreen": "BODY"
    },
    "rt": 626,
    "response_type": "key",
    "key_press": "ArrowUp",
    "response": "ArrowUp",
    "avg_frame_time": 6.94559585492228,
    "center_x": 400,
    "center_y": 225,
    "trial_type": "psychophysics",
    "trial_index": 46,
    "plugin_version": "4.0.0",
    "time_elapsed": 117357
  },
  {
    "rt": null,
    "response_type": "key",
    "key_press": null,
    "response": null,
    "avg_frame_time": 6.946478873239395,
    "center_x": 400,
    "center_y": 225,
    "trial_type": "psychophysics",
    "trial_index": 47,
    "plugin_version": "4.0.0",
    "time_elapsed": 117859
  },
  {
    "image1": "https://jatos.mindprobe.eu/publix/dc5cc523-e135-47a0-8729-15898506814c/dist/0738b36f5c5284a1fbe6de5047928226.webp",
    "image2": "https://jatos.mindprobe.eu/publix/dc5cc523-e135-47a0-8729-15898506814c/dist/c2c6af7a7e254bf30109d9388b53b5d8.webp",
    "grid_items": [
      {
        "letter": "",
        "color": "white"
      },
      {
        "letter": "",
        "color": "white"
      },
      {
        "letter": "",
        "color": "white"
      },
      {
        "letter": "",
        "color": "white"
      },
      {
        "letter": "T",
        "color": "black"
      },
      {
        "letter": "P",
        "color": "black"
      },
      {
        "letter": "G",
        "color": "black"
      },
      {
        "letter": "N",
        "color": "black"
      }
    ],
    "target": {
      "letter": "N",
      "color": "black"
    },
    "gaze_direction": "left",
    "grid_position": "right",
    "target_type": "valid",
    "block": "block-1",
    "face": "d",
    "window": {
      "dimensions": [
        1080,
        1920
      ],
      "isFullscreen": "BODY"
    },
    "rt": 614,
    "response_type": "key",
    "key_press": "ArrowDown",
    "response": "ArrowDown",
    "avg_frame_time": 6.9457538994800645,
    "center_x": 400,
    "center_y": 225,
    "trial_type": "psychophysics",
    "trial_index": 48,
    "plugin_version": "4.0.0",
    "time_elapsed": 121877
  },
  {
    "rt": null,
    "response_type": "key",
    "key_press": null,
    "response": null,
    "avg_frame_time": 6.945833333333212,
    "center_x": 400,
    "center_y": 225,
    "trial_type": "psychophysics",
    "trial_index": 49,
    "plugin_version": "4.0.0",
    "time_elapsed": 122379
  },
  {
    "image1": "https://jatos.mindprobe.eu/publix/dc5cc523-e135-47a0-8729-15898506814c/dist/0738b36f5c5284a1fbe6de5047928226.webp",
    "image2": "https://jatos.mindprobe.eu/publix/dc5cc523-e135-47a0-8729-15898506814c/dist/48e5157934b56d46aee0926365abe09d.webp",
    "grid_items": [
      {
        "letter": "",
        "color": "white"
      },
      {
        "letter": "",
        "color": "white"
      },
      {
        "letter": "",
        "color": "white"
      },
      {
        "letter": "",
        "color": "white"
      },
      {
        "letter": "N",
        "color": "black"
      },
      {
        "letter": "G",
        "color": "black"
      },
      {
        "letter": "P",
        "color": "black"
      },
      {
        "letter": "H",
        "color": "black"
      }
    ],
    "target": {
      "letter": "H",
      "color": "black"
    },
    "gaze_direction": "right",
    "grid_position": "right",
    "target_type": "valid",
    "block": "block-1",
    "face": "d",
    "window": {
      "dimensions": [
        1080,
        1920
      ],
      "isFullscreen": "BODY"
    },
    "rt": 743,
    "response_type": "key",
    "key_press": "ArrowUp",
    "response": "ArrowUp",
    "avg_frame_time": 6.945469798657718,
    "center_x": 400,
    "center_y": 225,
    "trial_type": "psychophysics",
    "trial_index": 50,
    "plugin_version": "4.0.0",
    "time_elapsed": 126526
  },
  {
    "rt": null,
    "response_type": "key",
    "key_press": null,
    "response": null,
    "avg_frame_time": 6.945070422535293,
    "center_x": 400,
    "center_y": 225,
    "trial_type": "psychophysics",
    "trial_index": 51,
    "plugin_version": "4.0.0",
    "time_elapsed": 127026
  },
  {
    "image1": "https://jatos.mindprobe.eu/publix/dc5cc523-e135-47a0-8729-15898506814c/dist/d429c5287be0e7ceba842a59a42841aa.webp",
    "image2": "https://jatos.mindprobe.eu/publix/dc5cc523-e135-47a0-8729-15898506814c/dist/7c19086664cedcdfc2bed264c3b04bfa.webp",
    "grid_items": [
      {
        "letter": "L",
        "color": "black"
      },
      {
        "letter": "P",
        "color": "black"
      },
      {
        "letter": "R",
        "color": "black"
      },
      {
        "letter": "K",
        "color": "black"
      },
      {
        "letter": "",
        "color": "white"
      },
      {
        "letter": "",
        "color": "white"
      },
      {
        "letter": "",
        "color": "white"
      },
      {
        "letter": "",
        "color": "white"
      }
    ],
    "target": {
      "letter": "C",
      "color": "black"
    },
    "gaze_direction": "left",
    "grid_position": "left",
    "target_type": "invalid",
    "block": "block-1",
    "face": "f",
    "window": {
      "dimensions": [
        1080,
        1920
      ],
      "isFullscreen": "BODY"
    },
    "rt": 737,
    "response_type": "key",
    "key_press": "ArrowDown",
    "response": "ArrowDown",
    "avg_frame_time": 6.945714285714305,
    "center_x": 400,
    "center_y": 225,
    "trial_type": "psychophysics",
    "trial_index": 52,
    "plugin_version": "4.0.0",
    "time_elapsed": 131169
  },
  {
    "rt": null,
    "response_type": "key",
    "key_press": null,
    "response": null,
    "avg_frame_time": 6.946478873239191,
    "center_x": 400,
    "center_y": 225,
    "trial_type": "psychophysics",
    "trial_index": 53,
    "plugin_version": "4.0.0",
    "time_elapsed": 131670
  },
  {
    "image1": "https://jatos.mindprobe.eu/publix/dc5cc523-e135-47a0-8729-15898506814c/dist/b2b7faaf2a59bb4bdfcb862858551c57.webp",
    "image2": "https://jatos.mindprobe.eu/publix/dc5cc523-e135-47a0-8729-15898506814c/dist/afa6e6b610b3cab6c6b449a4e2dd4d02.webp",
    "grid_items": [
      {
        "letter": "D",
        "color": "black"
      },
      {
        "letter": "H",
        "color": "black"
      },
      {
        "letter": "S",
        "color": "black"
      },
      {
        "letter": "N",
        "color": "black"
      },
      {
        "letter": "",
        "color": "white"
      },
      {
        "letter": "",
        "color": "white"
      },
      {
        "letter": "",
        "color": "white"
      },
      {
        "letter": "",
        "color": "white"
      }
    ],
    "target": {
      "letter": "H",
      "color": "black"
    },
    "gaze_direction": "right",
    "grid_position": "left",
    "target_type": "valid",
    "block": "block-1",
    "face": "a",
    "window": {
      "dimensions": [
        1080,
        1920
      ],
      "isFullscreen": "BODY"
    },
    "rt": 582,
    "response_type": "key",
    "key_press": "ArrowUp",
    "response": "ArrowUp",
    "avg_frame_time": 6.945454545454525,
    "center_x": 400,
    "center_y": 225,
    "trial_type": "psychophysics",
    "trial_index": 54,
    "plugin_version": "4.0.0",
    "time_elapsed": 135657
  },
  {
    "rt": null,
    "response_type": "key",
    "key_press": null,
    "response": null,
    "avg_frame_time": 6.946478873239601,
    "center_x": 400,
    "center_y": 225,
    "trial_type": "psychophysics",
    "trial_index": 55,
    "plugin_version": "4.0.0",
    "time_elapsed": 136159
  },
  {
    "image1": "https://jatos.mindprobe.eu/publix/dc5cc523-e135-47a0-8729-15898506814c/dist/d429c5287be0e7ceba842a59a42841aa.webp",
    "image2": "https://jatos.mindprobe.eu/publix/dc5cc523-e135-47a0-8729-15898506814c/dist/9e284198aaef8c500a1145e962e8a4d0.webp",
    "grid_items": [
      {
        "letter": "",
        "color": "white"
      },
      {
        "letter": "",
        "color": "white"
      },
      {
        "letter": "",
        "color": "white"
      },
      {
        "letter": "",
        "color": "white"
      },
      {
        "letter": "L",
        "color": "black"
      },
      {
        "letter": "F",
        "color": "black"
      },
      {
        "letter": "H",
        "color": "black"
      },
      {
        "letter": "C",
        "color": "black"
      }
    ],
    "target": {
      "letter": "R",
      "color": "black"
    },
    "gaze_direction": "right",
    "grid_position": "right",
    "target_type": "invalid",
    "block": "block-1",
    "face": "f",
    "window": {
      "dimensions": [
        1080,
        1920
      ],
      "isFullscreen": "BODY"
    },
    "rt": 735,
    "response_type": "key",
    "key_press": "ArrowUp",
    "response": "ArrowUp",
    "avg_frame_time": 6.945546218487404,
    "center_x": 400,
    "center_y": 225,
    "trial_type": "psychophysics",
    "trial_index": 56,
    "plugin_version": "4.0.0",
    "time_elapsed": 140299
  },
  {
    "rt": null,
    "response_type": "key",
    "key_press": null,
    "response": null,
    "avg_frame_time": 6.945070422534883,
    "center_x": 400,
    "center_y": 225,
    "trial_type": "psychophysics",
    "trial_index": 57,
    "plugin_version": "4.0.0",
    "time_elapsed": 140800
  },
  {
    "image1": "https://jatos.mindprobe.eu/publix/dc5cc523-e135-47a0-8729-15898506814c/dist/36ce3cf01c34ab194e87cdb81ee9890f.webp",
    "image2": "https://jatos.mindprobe.eu/publix/dc5cc523-e135-47a0-8729-15898506814c/dist/6ef25f867bb912257ed8a75458a113f3.webp",
    "grid_items": [
      {
        "letter": "",
        "color": "white"
      },
      {
        "letter": "",
        "color": "white"
      },
      {
        "letter": "",
        "color": "white"
      },
      {
        "letter": "",
        "color": "white"
      },
      {
        "letter": "P",
        "color": "black"
      },
      {
        "letter": "H",
        "color": "black"
      },
      {
        "letter": "L",
        "color": "black"
      },
      {
        "letter": "R",
        "color": "black"
      }
    ],
    "target": {
      "letter": "K",
      "color": "black"
    },
    "gaze_direction": "left",
    "grid_position": "right",
    "target_type": "invalid",
    "block": "block-1",
    "face": "c",
    "window": {
      "dimensions": [
        1080,
        1920
      ],
      "isFullscreen": "BODY"
    },
    "rt": 849,
    "response_type": "key",
    "key_press": "ArrowDown",
    "response": "ArrowDown",
    "avg_frame_time": 6.945499181669414,
    "center_x": 400,
    "center_y": 225,
    "trial_type": "psychophysics",
    "trial_index": 58,
    "plugin_version": "4.0.0",
    "time_elapsed": 145054
  },
  {
    "rt": null,
    "response_type": "key",
    "key_press": null,
    "response": null,
    "avg_frame_time": 6.945070422535293,
    "center_x": 400,
    "center_y": 225,
    "trial_type": "psychophysics",
    "trial_index": 59,
    "plugin_version": "4.0.0",
    "time_elapsed": 145555
  },
  {
    "image1": "https://jatos.mindprobe.eu/publix/dc5cc523-e135-47a0-8729-15898506814c/dist/40dece98c751976c5ae971fb799b576a.webp",
    "image2": "https://jatos.mindprobe.eu/publix/dc5cc523-e135-47a0-8729-15898506814c/dist/a0953907ed0c4f557cc32072c240bdb4.webp",
    "grid_items": [
      {
        "letter": "",
        "color": "white"
      },
      {
        "letter": "",
        "color": "white"
      },
      {
        "letter": "",
        "color": "white"
      },
      {
        "letter": "",
        "color": "white"
      },
      {
        "letter": "M",
        "color": "black"
      },
      {
        "letter": "D",
        "color": "black"
      },
      {
        "letter": "N",
        "color": "black"
      },
      {
        "letter": "P",
        "color": "black"
      }
    ],
    "target": {
      "letter": "M",
      "color": "black"
    },
    "gaze_direction": "right",
    "grid_position": "right",
    "target_type": "valid",
    "block": "block-1",
    "face": "b",
    "window": {
      "dimensions": [
        1080,
        1920
      ],
      "isFullscreen": "BODY"
    },
    "rt": 1020,
    "response_type": "key",
    "key_press": "ArrowUp",
    "response": "ArrowUp",
    "avg_frame_time": 6.945754716981132,
    "center_x": 400,
    "center_y": 225,
    "trial_type": "psychophysics",
    "trial_index": 60,
    "plugin_version": "4.0.0",
    "time_elapsed": 149982
  },
  {
    "rt": null,
    "response_type": "key",
    "key_press": null,
    "response": null,
    "avg_frame_time": 6.945070422535293,
    "center_x": 400,
    "center_y": 225,
    "trial_type": "psychophysics",
    "trial_index": 61,
    "plugin_version": "4.0.0",
    "time_elapsed": 150484
  },
  {
    "image1": "https://jatos.mindprobe.eu/publix/dc5cc523-e135-47a0-8729-15898506814c/dist/1d4fc1100b57f312ef6f7e81e8502a85.webp",
    "image2": "https://jatos.mindprobe.eu/publix/dc5cc523-e135-47a0-8729-15898506814c/dist/7aa52bcb2291ad2c1eab0a1c309e9ebe.webp",
    "grid_items": [
      {
        "letter": "D",
        "color": "black"
      },
      {
        "letter": "L",
        "color": "black"
      },
      {
        "letter": "P",
        "color": "black"
      },
      {
        "letter": "G",
        "color": "black"
      },
      {
        "letter": "",
        "color": "white"
      },
      {
        "letter": "",
        "color": "white"
      },
      {
        "letter": "",
        "color": "white"
      },
      {
        "letter": "",
        "color": "white"
      }
    ],
    "target": {
      "letter": "P",
      "color": "black"
    },
    "gaze_direction": "left",
    "grid_position": "left",
    "target_type": "valid",
    "block": "block-1",
    "face": "e",
    "window": {
      "dimensions": [
        1080,
        1920
      ],
      "isFullscreen": "BODY"
    },
    "rt": 724,
    "response_type": "key",
    "key_press": "ArrowUp",
    "response": "ArrowUp",
    "avg_frame_time": 6.945699831365966,
    "center_x": 400,
    "center_y": 225,
    "trial_type": "psychophysics",
    "trial_index": 62,
    "plugin_version": "4.0.0",
    "time_elapsed": 154615
  },
  {
    "rt": null,
    "response_type": "key",
    "key_press": null,
    "response": null,
    "avg_frame_time": 6.946478873239191,
    "center_x": 400,
    "center_y": 225,
    "trial_type": "psychophysics",
    "trial_index": 63,
    "plugin_version": "4.0.0",
    "time_elapsed": 155116
  },
  {
    "image1": "https://jatos.mindprobe.eu/publix/dc5cc523-e135-47a0-8729-15898506814c/dist/0738b36f5c5284a1fbe6de5047928226.webp",
    "image2": "https://jatos.mindprobe.eu/publix/dc5cc523-e135-47a0-8729-15898506814c/dist/48e5157934b56d46aee0926365abe09d.webp",
    "grid_items": [
      {
        "letter": "R",
        "color": "black"
      },
      {
        "letter": "G",
        "color": "black"
      },
      {
        "letter": "C",
        "color": "black"
      },
      {
        "letter": "L",
        "color": "black"
      },
      {
        "letter": "",
        "color": "white"
      },
      {
        "letter": "",
        "color": "white"
      },
      {
        "letter": "",
        "color": "white"
      },
      {
        "letter": "",
        "color": "white"
      }
    ],
    "target": {
      "letter": "L",
      "color": "black"
    },
    "gaze_direction": "right",
    "grid_position": "left",
    "target_type": "valid",
    "block": "block-1",
    "face": "d",
    "window": {
      "dimensions": [
        1080,
        1920
      ],
      "isFullscreen": "BODY"
    },
    "rt": 770,
    "response_type": "key",
    "key_press": "ArrowUp",
    "response": "ArrowUp",
    "avg_frame_time": 6.945575959933213,
    "center_x": 400,
    "center_y": 225,
    "trial_type": "psychophysics",
    "trial_index": 64,
    "plugin_version": "4.0.0",
    "time_elapsed": 159292
  },
  {
    "rt": null,
    "response_type": "key",
    "key_press": null,
    "response": null,
    "avg_frame_time": 6.946478873239601,
    "center_x": 400,
    "center_y": 225,
    "trial_type": "psychophysics",
    "trial_index": 65,
    "plugin_version": "4.0.0",
    "time_elapsed": 159793
  },
  {
    "image1": "https://jatos.mindprobe.eu/publix/dc5cc523-e135-47a0-8729-15898506814c/dist/36ce3cf01c34ab194e87cdb81ee9890f.webp",
    "image2": "https://jatos.mindprobe.eu/publix/dc5cc523-e135-47a0-8729-15898506814c/dist/7abc9556bd3afc91e874c19e0dfb4358.webp",
    "grid_items": [
      {
        "letter": "P",
        "color": "black"
      },
      {
        "letter": "N",
        "color": "black"
      },
      {
        "letter": "H",
        "color": "black"
      },
      {
        "letter": "T",
        "color": "black"
      },
      {
        "letter": "",
        "color": "white"
      },
      {
        "letter": "",
        "color": "white"
      },
      {
        "letter": "",
        "color": "white"
      },
      {
        "letter": "",
        "color": "white"
      }
    ],
    "target": {
      "letter": "B",
      "color": "black"
    },
    "gaze_direction": "right",
    "grid_position": "left",
    "target_type": "invalid",
    "block": "block-1",
    "face": "c",
    "window": {
      "dimensions": [
        1080,
        1920
      ],
      "isFullscreen": "BODY"
    },
    "rt": 789,
    "response_type": "key",
    "key_press": "ArrowDown",
    "response": "ArrowDown",
    "avg_frame_time": 6.946013289036545,
    "center_x": 400,
    "center_y": 225,
    "trial_type": "psychophysics",
    "trial_index": 66,
    "plugin_version": "4.0.0",
    "time_elapsed": 163988
  },
  {
    "rt": null,
    "response_type": "key",
    "key_press": null,
    "response": null,
    "avg_frame_time": 6.947887323943498,
    "center_x": 400,
    "center_y": 225,
    "trial_type": "psychophysics",
    "trial_index": 67,
    "plugin_version": "4.0.0",
    "time_elapsed": 164490
  },
  {
    "image1": "https://jatos.mindprobe.eu/publix/dc5cc523-e135-47a0-8729-15898506814c/dist/0738b36f5c5284a1fbe6de5047928226.webp",
    "image2": "https://jatos.mindprobe.eu/publix/dc5cc523-e135-47a0-8729-15898506814c/dist/c2c6af7a7e254bf30109d9388b53b5d8.webp",
    "grid_items": [
      {
        "letter": "",
        "color": "white"
      },
      {
        "letter": "",
        "color": "white"
      },
      {
        "letter": "",
        "color": "white"
      },
      {
        "letter": "",
        "color": "white"
      },
      {
        "letter": "K",
        "color": "black"
      },
      {
        "letter": "G",
        "color": "black"
      },
      {
        "letter": "R",
        "color": "black"
      },
      {
        "letter": "B",
        "color": "black"
      }
    ],
    "target": {
      "letter": "C",
      "color": "black"
    },
    "gaze_direction": "left",
    "grid_position": "right",
    "target_type": "invalid",
    "block": "block-1",
    "face": "d",
    "window": {
      "dimensions": [
        1080,
        1920
      ],
      "isFullscreen": "BODY"
    },
    "rt": 1210,
    "response_type": "key",
    "key_press": "ArrowDown",
    "response": "ArrowDown",
    "avg_frame_time": 6.945550527903504,
    "center_x": 400,
    "center_y": 225,
    "trial_type": "psychophysics",
    "trial_index": 68,
    "plugin_version": "4.0.0",
    "time_elapsed": 169107
  },
  {
    "rt": null,
    "response_type": "key",
    "key_press": null,
    "response": null,
    "avg_frame_time": 6.945070422534883,
    "center_x": 400,
    "center_y": 225,
    "trial_type": "psychophysics",
    "trial_index": 69,
    "plugin_version": "4.0.0",
    "time_elapsed": 169607
  },
  {
    "image1": "https://jatos.mindprobe.eu/publix/dc5cc523-e135-47a0-8729-15898506814c/dist/1d4fc1100b57f312ef6f7e81e8502a85.webp",
    "image2": "https://jatos.mindprobe.eu/publix/dc5cc523-e135-47a0-8729-15898506814c/dist/7aa52bcb2291ad2c1eab0a1c309e9ebe.webp",
    "grid_items": [
      {
        "letter": "",
        "color": "white"
      },
      {
        "letter": "",
        "color": "white"
      },
      {
        "letter": "",
        "color": "white"
      },
      {
        "letter": "",
        "color": "white"
      },
      {
        "letter": "G",
        "color": "black"
      },
      {
        "letter": "M",
        "color": "black"
      },
      {
        "letter": "S",
        "color": "black"
      },
      {
        "letter": "C",
        "color": "black"
      }
    ],
    "target": {
      "letter": "H",
      "color": "black"
    },
    "gaze_direction": "left",
    "grid_position": "right",
    "target_type": "invalid",
    "block": "block-1",
    "face": "e",
    "window": {
      "dimensions": [
        1080,
        1920
      ],
      "isFullscreen": "BODY"
    },
    "rt": 835,
    "response_type": "key",
    "key_press": "ArrowDown",
    "response": "ArrowDown",
    "avg_frame_time": 6.945648604269285,
    "center_x": 400,
    "center_y": 225,
    "trial_type": "psychophysics",
    "trial_index": 70,
    "plugin_version": "4.0.0",
    "time_elapsed": 173850
  },
  {
    "rt": null,
    "response_type": "key",
    "key_press": null,
    "response": null,
    "avg_frame_time": 6.946478873239601,
    "center_x": 400,
    "center_y": 225,
    "trial_type": "psychophysics",
    "trial_index": 71,
    "plugin_version": "4.0.0",
    "time_elapsed": 174351
  },
  {
    "image1": "https://jatos.mindprobe.eu/publix/dc5cc523-e135-47a0-8729-15898506814c/dist/36ce3cf01c34ab194e87cdb81ee9890f.webp",
    "image2": "https://jatos.mindprobe.eu/publix/dc5cc523-e135-47a0-8729-15898506814c/dist/7abc9556bd3afc91e874c19e0dfb4358.webp",
    "grid_items": [
      {
        "letter": "",
        "color": "white"
      },
      {
        "letter": "",
        "color": "white"
      },
      {
        "letter": "",
        "color": "white"
      },
      {
        "letter": "",
        "color": "white"
      },
      {
        "letter": "B",
        "color": "black"
      },
      {
        "letter": "D",
        "color": "black"
      },
      {
        "letter": "S",
        "color": "black"
      },
      {
        "letter": "H",
        "color": "black"
      }
    ],
    "target": {
      "letter": "T",
      "color": "black"
    },
    "gaze_direction": "right",
    "grid_position": "right",
    "target_type": "invalid",
    "block": "block-1",
    "face": "c",
    "window": {
      "dimensions": [
        1080,
        1920
      ],
      "isFullscreen": "BODY"
    },
    "rt": 750,
    "response_type": "key",
    "key_press": "ArrowDown",
    "response": "ArrowDown",
    "avg_frame_time": 6.94572864321609,
    "center_x": 400,
    "center_y": 225,
    "trial_type": "psychophysics",
    "trial_index": 72,
    "plugin_version": "4.0.0",
    "time_elapsed": 178508
  },
  {
    "rt": null,
    "response_type": "key",
    "key_press": null,
    "response": null,
    "avg_frame_time": 6.946478873239191,
    "center_x": 400,
    "center_y": 225,
    "trial_type": "psychophysics",
    "trial_index": 73,
    "plugin_version": "4.0.0",
    "time_elapsed": 179009
  },
  {
    "image1": "https://jatos.mindprobe.eu/publix/dc5cc523-e135-47a0-8729-15898506814c/dist/b2b7faaf2a59bb4bdfcb862858551c57.webp",
    "image2": "https://jatos.mindprobe.eu/publix/dc5cc523-e135-47a0-8729-15898506814c/dist/a2b978bad27da55c204371f73357f1d7.webp",
    "grid_items": [
      {
        "letter": "C",
        "color": "black"
      },
      {
        "letter": "H",
        "color": "black"
      },
      {
        "letter": "R",
        "color": "black"
      },
      {
        "letter": "B",
        "color": "black"
      },
      {
        "letter": "",
        "color": "white"
      },
      {
        "letter": "",
        "color": "white"
      },
      {
        "letter": "",
        "color": "white"
      },
      {
        "letter": "",
        "color": "white"
      }
    ],
    "target": {
      "letter": "N",
      "color": "black"
    },
    "gaze_direction": "left",
    "grid_position": "left",
    "target_type": "invalid",
    "block": "block-1",
    "face": "a",
    "window": {
      "dimensions": [
        1080,
        1920
      ],
      "isFullscreen": "BODY"
    },
    "rt": 644,
    "response_type": "key",
    "key_press": "ArrowUp",
    "response": "ArrowUp",
    "avg_frame_time": 6.94526678141133,
    "center_x": 400,
    "center_y": 225,
    "trial_type": "psychophysics",
    "trial_index": 74,
    "plugin_version": "4.0.0",
    "time_elapsed": 183061
  },
  {
    "rt": null,
    "response_type": "key",
    "key_press": null,
    "response": null,
    "avg_frame_time": 6.945833333333415,
    "center_x": 400,
    "center_y": 225,
    "trial_type": "psychophysics",
    "trial_index": 75,
    "plugin_version": "4.0.0",
    "time_elapsed": 183563
  },
  {
    "image1": "https://jatos.mindprobe.eu/publix/dc5cc523-e135-47a0-8729-15898506814c/dist/b2b7faaf2a59bb4bdfcb862858551c57.webp",
    "image2": "https://jatos.mindprobe.eu/publix/dc5cc523-e135-47a0-8729-15898506814c/dist/a2b978bad27da55c204371f73357f1d7.webp",
    "grid_items": [
      {
        "letter": "R",
        "color": "black"
      },
      {
        "letter": "B",
        "color": "black"
      },
      {
        "letter": "K",
        "color": "black"
      },
      {
        "letter": "H",
        "color": "black"
      },
      {
        "letter": "",
        "color": "white"
      },
      {
        "letter": "",
        "color": "white"
      },
      {
        "letter": "",
        "color": "white"
      },
      {
        "letter": "",
        "color": "white"
      }
    ],
    "target": {
      "letter": "B",
      "color": "black"
    },
    "gaze_direction": "left",
    "grid_position": "left",
    "target_type": "valid",
    "block": "block-1",
    "face": "a",
    "window": {
      "dimensions": [
        1080,
        1920
      ],
      "isFullscreen": "BODY"
    },
    "rt": 644,
    "response_type": "key",
    "key_press": "ArrowUp",
    "response": "ArrowUp",
    "avg_frame_time": 6.945783132530121,
    "center_x": 400,
    "center_y": 225,
    "trial_type": "psychophysics",
    "trial_index": 76,
    "plugin_version": "4.0.0",
    "time_elapsed": 187616
  },
  {
    "rt": null,
    "response_type": "key",
    "key_press": null,
    "response": null,
    "avg_frame_time": 6.946478873239601,
    "center_x": 400,
    "center_y": 225,
    "trial_type": "psychophysics",
    "trial_index": 77,
    "plugin_version": "4.0.0",
    "time_elapsed": 188118
  },
  {
    "image1": "https://jatos.mindprobe.eu/publix/dc5cc523-e135-47a0-8729-15898506814c/dist/d429c5287be0e7ceba842a59a42841aa.webp",
    "image2": "https://jatos.mindprobe.eu/publix/dc5cc523-e135-47a0-8729-15898506814c/dist/9e284198aaef8c500a1145e962e8a4d0.webp",
    "grid_items": [
      {
        "letter": "R",
        "color": "black"
      },
      {
        "letter": "B",
        "color": "black"
      },
      {
        "letter": "F",
        "color": "black"
      },
      {
        "letter": "K",
        "color": "black"
      },
      {
        "letter": "",
        "color": "white"
      },
      {
        "letter": "",
        "color": "white"
      },
      {
        "letter": "",
        "color": "white"
      },
      {
        "letter": "",
        "color": "white"
      }
    ],
    "target": {
      "letter": "M",
      "color": "black"
    },
    "gaze_direction": "right",
    "grid_position": "left",
    "target_type": "invalid",
    "block": "block-1",
    "face": "f",
    "window": {
      "dimensions": [
        1080,
        1920
      ],
      "isFullscreen": "BODY"
    },
    "rt": 730,
    "response_type": "key",
    "key_press": "ArrowDown",
    "response": "ArrowDown",
    "avg_frame_time": 6.945622895622916,
    "center_x": 400,
    "center_y": 225,
    "trial_type": "psychophysics",
    "trial_index": 78,
    "plugin_version": "4.0.0",
    "time_elapsed": 192256
  },
  {
    "rt": null,
    "response_type": "key",
    "key_press": null,
    "response": null,
    "avg_frame_time": 6.945070422535293,
    "center_x": 400,
    "center_y": 225,
    "trial_type": "psychophysics",
    "trial_index": 79,
    "plugin_version": "4.0.0",
    "time_elapsed": 192758
  },
  {
    "image1": "https://jatos.mindprobe.eu/publix/dc5cc523-e135-47a0-8729-15898506814c/dist/36ce3cf01c34ab194e87cdb81ee9890f.webp",
    "image2": "https://jatos.mindprobe.eu/publix/dc5cc523-e135-47a0-8729-15898506814c/dist/6ef25f867bb912257ed8a75458a113f3.webp",
    "grid_items": [
      {
        "letter": "G",
        "color": "black"
      },
      {
        "letter": "K",
        "color": "black"
      },
      {
        "letter": "T",
        "color": "black"
      },
      {
        "letter": "R",
        "color": "black"
      },
      {
        "letter": "",
        "color": "white"
      },
      {
        "letter": "",
        "color": "white"
      },
      {
        "letter": "",
        "color": "white"
      },
      {
        "letter": "",
        "color": "white"
      }
    ],
    "target": {
      "letter": "T",
      "color": "black"
    },
    "gaze_direction": "left",
    "grid_position": "left",
    "target_type": "valid",
    "block": "block-1",
    "face": "c",
    "window": {
      "dimensions": [
        1080,
        1920
      ],
      "isFullscreen": "BODY"
    },
    "rt": 568,
    "response_type": "key",
    "key_press": "ArrowUp",
    "response": "ArrowUp",
    "avg_frame_time": 6.945709281961471,
    "center_x": 400,
    "center_y": 225,
    "trial_type": "psychophysics",
    "trial_index": 80,
    "plugin_version": "4.0.0",
    "time_elapsed": 196735
  },
  {
    "rt": null,
    "response_type": "key",
    "key_press": null,
    "response": null,
    "avg_frame_time": 6.945070422535293,
    "center_x": 400,
    "center_y": 225,
    "trial_type": "psychophysics",
    "trial_index": 81,
    "plugin_version": "4.0.0",
    "time_elapsed": 197237
  },
  {
    "image1": "https://jatos.mindprobe.eu/publix/dc5cc523-e135-47a0-8729-15898506814c/dist/40dece98c751976c5ae971fb799b576a.webp",
    "image2": "https://jatos.mindprobe.eu/publix/dc5cc523-e135-47a0-8729-15898506814c/dist/a0953907ed0c4f557cc32072c240bdb4.webp",
    "grid_items": [
      {
        "letter": "",
        "color": "white"
      },
      {
        "letter": "",
        "color": "white"
      },
      {
        "letter": "",
        "color": "white"
      },
      {
        "letter": "",
        "color": "white"
      },
      {
        "letter": "S",
        "color": "black"
      },
      {
        "letter": "L",
        "color": "black"
      },
      {
        "letter": "H",
        "color": "black"
      },
      {
        "letter": "B",
        "color": "black"
      }
    ],
    "target": {
      "letter": "N",
      "color": "black"
    },
    "gaze_direction": "right",
    "grid_position": "right",
    "target_type": "invalid",
    "block": "block-1",
    "face": "b",
    "window": {
      "dimensions": [
        1080,
        1920
      ],
      "isFullscreen": "BODY"
    },
    "rt": 743,
    "response_type": "key",
    "key_press": "ArrowDown",
    "response": "ArrowDown",
    "avg_frame_time": 6.945469798657718,
    "center_x": 400,
    "center_y": 225,
    "trial_type": "psychophysics",
    "trial_index": 82,
    "plugin_version": "4.0.0",
    "time_elapsed": 201388
  },
  {
    "rt": null,
    "response_type": "key",
    "key_press": null,
    "response": null,
    "avg_frame_time": 6.943661971830986,
    "center_x": 400,
    "center_y": 225,
    "trial_type": "psychophysics",
    "trial_index": 83,
    "plugin_version": "4.0.0",
    "time_elapsed": 201890
  },
  {
    "image1": "https://jatos.mindprobe.eu/publix/dc5cc523-e135-47a0-8729-15898506814c/dist/40dece98c751976c5ae971fb799b576a.webp",
    "image2": "https://jatos.mindprobe.eu/publix/dc5cc523-e135-47a0-8729-15898506814c/dist/539bb0274850bc5c179b9239bd4821e4.webp",
    "grid_items": [
      {
        "letter": "P",
        "color": "black"
      },
      {
        "letter": "K",
        "color": "black"
      },
      {
        "letter": "S",
        "color": "black"
      },
      {
        "letter": "R",
        "color": "black"
      },
      {
        "letter": "",
        "color": "white"
      },
      {
        "letter": "",
        "color": "white"
      },
      {
        "letter": "",
        "color": "white"
      },
      {
        "letter": "",
        "color": "white"
      }
    ],
    "target": {
      "letter": "R",
      "color": "black"
    },
    "gaze_direction": "left",
    "grid_position": "left",
    "target_type": "valid",
    "block": "block-1",
    "face": "b",
    "window": {
      "dimensions": [
        1080,
        1920
      ],
      "isFullscreen": "BODY"
    },
    "rt": 629,
    "response_type": "key",
    "key_press": "ArrowUp",
    "response": "ArrowUp",
    "avg_frame_time": 6.945689655172414,
    "center_x": 400,
    "center_y": 225,
    "trial_type": "psychophysics",
    "trial_index": 84,
    "plugin_version": "4.0.0",
    "time_elapsed": 205928
  },
  {
    "rt": null,
    "response_type": "key",
    "key_press": null,
    "response": null,
    "avg_frame_time": 6.946478873239601,
    "center_x": 400,
    "center_y": 225,
    "trial_type": "psychophysics",
    "trial_index": 85,
    "plugin_version": "4.0.0",
    "time_elapsed": 206429
  },
  {
    "image1": "https://jatos.mindprobe.eu/publix/dc5cc523-e135-47a0-8729-15898506814c/dist/1d4fc1100b57f312ef6f7e81e8502a85.webp",
    "image2": "https://jatos.mindprobe.eu/publix/dc5cc523-e135-47a0-8729-15898506814c/dist/7aa52bcb2291ad2c1eab0a1c309e9ebe.webp",
    "grid_items": [
      {
        "letter": "T",
        "color": "black"
      },
      {
        "letter": "H",
        "color": "black"
      },
      {
        "letter": "R",
        "color": "black"
      },
      {
        "letter": "D",
        "color": "black"
      },
      {
        "letter": "",
        "color": "white"
      },
      {
        "letter": "",
        "color": "white"
      },
      {
        "letter": "",
        "color": "white"
      },
      {
        "letter": "",
        "color": "white"
      }
    ],
    "target": {
      "letter": "G",
      "color": "black"
    },
    "gaze_direction": "left",
    "grid_position": "left",
    "target_type": "invalid",
    "block": "block-1",
    "face": "e",
    "window": {
      "dimensions": [
        1080,
        1920
      ],
      "isFullscreen": "BODY"
    },
    "rt": 1033,
    "response_type": "key",
    "key_press": "ArrowDown",
    "response": "ArrowDown",
    "avg_frame_time": 6.945839874411303,
    "center_x": 400,
    "center_y": 225,
    "trial_type": "psychophysics",
    "trial_index": 86,
    "plugin_version": "4.0.0",
    "time_elapsed": 210873
  },
  {
    "rt": null,
    "response_type": "key",
    "key_press": null,
    "response": null,
    "avg_frame_time": 6.947222222222384,
    "center_x": 400,
    "center_y": 225,
    "trial_type": "psychophysics",
    "trial_index": 87,
    "plugin_version": "4.0.0",
    "time_elapsed": 211375
  },
  {
    "image1": "https://jatos.mindprobe.eu/publix/dc5cc523-e135-47a0-8729-15898506814c/dist/b2b7faaf2a59bb4bdfcb862858551c57.webp",
    "image2": "https://jatos.mindprobe.eu/publix/dc5cc523-e135-47a0-8729-15898506814c/dist/a2b978bad27da55c204371f73357f1d7.webp",
    "grid_items": [
      {
        "letter": "",
        "color": "white"
      },
      {
        "letter": "",
        "color": "white"
      },
      {
        "letter": "",
        "color": "white"
      },
      {
        "letter": "",
        "color": "white"
      },
      {
        "letter": "L",
        "color": "black"
      },
      {
        "letter": "G",
        "color": "black"
      },
      {
        "letter": "N",
        "color": "black"
      },
      {
        "letter": "H",
        "color": "black"
      }
    ],
    "target": {
      "letter": "H",
      "color": "black"
    },
    "gaze_direction": "left",
    "grid_position": "right",
    "target_type": "valid",
    "block": "block-1",
    "face": "a",
    "window": {
      "dimensions": [
        1080,
        1920
      ],
      "isFullscreen": "BODY"
    },
    "rt": 723,
    "response_type": "key",
    "key_press": "ArrowUp",
    "response": "ArrowUp",
    "avg_frame_time": 6.945699831365916,
    "center_x": 400,
    "center_y": 225,
    "trial_type": "psychophysics",
    "trial_index": 88,
    "plugin_version": "4.0.0",
    "time_elapsed": 215508
  },
  {
    "rt": null,
    "response_type": "key",
    "key_press": null,
    "response": null,
    "avg_frame_time": 6.946478873239601,
    "center_x": 400,
    "center_y": 225,
    "trial_type": "psychophysics",
    "trial_index": 89,
    "plugin_version": "4.0.0",
    "time_elapsed": 216009
  },
  {
    "image1": "https://jatos.mindprobe.eu/publix/dc5cc523-e135-47a0-8729-15898506814c/dist/b2b7faaf2a59bb4bdfcb862858551c57.webp",
    "image2": "https://jatos.mindprobe.eu/publix/dc5cc523-e135-47a0-8729-15898506814c/dist/a2b978bad27da55c204371f73357f1d7.webp",
    "grid_items": [
      {
        "letter": "",
        "color": "white"
      },
      {
        "letter": "",
        "color": "white"
      },
      {
        "letter": "",
        "color": "white"
      },
      {
        "letter": "",
        "color": "white"
      },
      {
        "letter": "K",
        "color": "black"
      },
      {
        "letter": "G",
        "color": "black"
      },
      {
        "letter": "H",
        "color": "black"
      },
      {
        "letter": "C",
        "color": "black"
      }
    ],
    "target": {
      "letter": "N",
      "color": "black"
    },
    "gaze_direction": "left",
    "grid_position": "right",
    "target_type": "invalid",
    "block": "block-1",
    "face": "a",
    "window": {
      "dimensions": [
        1080,
        1920
      ],
      "isFullscreen": "BODY"
    },
    "rt": 732,
    "response_type": "key",
    "key_press": "ArrowDown",
    "response": "ArrowDown",
    "avg_frame_time": 6.945791245791226,
    "center_x": 400,
    "center_y": 225,
    "trial_type": "psychophysics",
    "trial_index": 90,
    "plugin_version": "4.0.0",
    "time_elapsed": 220152
  },
  {
    "rt": null,
    "response_type": "key",
    "key_press": null,
    "response": null,
    "avg_frame_time": 6.94583333333301,
    "center_x": 400,
    "center_y": 225,
    "trial_type": "psychophysics",
    "trial_index": 91,
    "plugin_version": "4.0.0",
    "time_elapsed": 220654
  },
  {
    "image1": "https://jatos.mindprobe.eu/publix/dc5cc523-e135-47a0-8729-15898506814c/dist/40dece98c751976c5ae971fb799b576a.webp",
    "image2": "https://jatos.mindprobe.eu/publix/dc5cc523-e135-47a0-8729-15898506814c/dist/539bb0274850bc5c179b9239bd4821e4.webp",
    "grid_items": [
      {
        "letter": "L",
        "color": "black"
      },
      {
        "letter": "R",
        "color": "black"
      },
      {
        "letter": "C",
        "color": "black"
      },
      {
        "letter": "S",
        "color": "black"
      },
      {
        "letter": "",
        "color": "white"
      },
      {
        "letter": "",
        "color": "white"
      },
      {
        "letter": "",
        "color": "white"
      },
      {
        "letter": "",
        "color": "white"
      }
    ],
    "target": {
      "letter": "D",
      "color": "black"
    },
    "gaze_direction": "left",
    "grid_position": "left",
    "target_type": "invalid",
    "block": "block-1",
    "face": "b",
    "window": {
      "dimensions": [
        1080,
        1920
      ],
      "isFullscreen": "BODY"
    },
    "rt": 774,
    "response_type": "key",
    "key_press": "ArrowDown",
    "response": "ArrowDown",
    "avg_frame_time": 6.945666666666657,
    "center_x": 400,
    "center_y": 225,
    "trial_type": "psychophysics",
    "trial_index": 92,
    "plugin_version": "4.0.0",
    "time_elapsed": 224839
  },
  {
    "rt": null,
    "response_type": "key",
    "key_press": null,
    "response": null,
    "avg_frame_time": 6.946478873239601,
    "center_x": 400,
    "center_y": 225,
    "trial_type": "psychophysics",
    "trial_index": 93,
    "plugin_version": "4.0.0",
    "time_elapsed": 225340
  },
  {
    "image1": "https://jatos.mindprobe.eu/publix/dc5cc523-e135-47a0-8729-15898506814c/dist/36ce3cf01c34ab194e87cdb81ee9890f.webp",
    "image2": "https://jatos.mindprobe.eu/publix/dc5cc523-e135-47a0-8729-15898506814c/dist/6ef25f867bb912257ed8a75458a113f3.webp",
    "grid_items": [
      {
        "letter": "",
        "color": "white"
      },
      {
        "letter": "",
        "color": "white"
      },
      {
        "letter": "",
        "color": "white"
      },
      {
        "letter": "",
        "color": "white"
      },
      {
        "letter": "S",
        "color": "black"
      },
      {
        "letter": "R",
        "color": "black"
      },
      {
        "letter": "G",
        "color": "black"
      },
      {
        "letter": "D",
        "color": "black"
      }
    ],
    "target": {
      "letter": "G",
      "color": "black"
    },
    "gaze_direction": "left",
    "grid_position": "right",
    "target_type": "valid",
    "block": "block-1",
    "face": "c",
    "window": {
      "dimensions": [
        1080,
        1920
      ],
      "isFullscreen": "BODY"
    },
    "rt": 963,
    "response_type": "key",
    "key_press": "ArrowUp",
    "response": "ArrowUp",
    "avg_frame_time": 6.945700636942666,
    "center_x": 400,
    "center_y": 225,
    "trial_type": "psychophysics",
    "trial_index": 94,
    "plugin_version": "4.0.0",
    "time_elapsed": 229714
  },
  {
    "rt": null,
    "response_type": "key",
    "key_press": null,
    "response": null,
    "avg_frame_time": 6.946478873239601,
    "center_x": 400,
    "center_y": 225,
    "trial_type": "psychophysics",
    "trial_index": 95,
    "plugin_version": "4.0.0",
    "time_elapsed": 230215
  },
  {
    "image1": "https://jatos.mindprobe.eu/publix/dc5cc523-e135-47a0-8729-15898506814c/dist/0738b36f5c5284a1fbe6de5047928226.webp",
    "image2": "https://jatos.mindprobe.eu/publix/dc5cc523-e135-47a0-8729-15898506814c/dist/c2c6af7a7e254bf30109d9388b53b5d8.webp",
    "grid_items": [
      {
        "letter": "N",
        "color": "black"
      },
      {
        "letter": "L",
        "color": "black"
      },
      {
        "letter": "P",
        "color": "black"
      },
      {
        "letter": "H",
        "color": "black"
      },
      {
        "letter": "",
        "color": "white"
      },
      {
        "letter": "",
        "color": "white"
      },
      {
        "letter": "",
        "color": "white"
      },
      {
        "letter": "",
        "color": "white"
      }
    ],
    "target": {
      "letter": "L",
      "color": "black"
    },
    "gaze_direction": "left",
    "grid_position": "left",
    "target_type": "valid",
    "block": "block-1",
    "face": "d",
    "window": {
      "dimensions": [
        1080,
        1920
      ],
      "isFullscreen": "BODY"
    },
    "rt": 592,
    "response_type": "key",
    "key_press": "ArrowUp",
    "response": "ArrowUp",
    "avg_frame_time": 6.945913043478301,
    "center_x": 400,
    "center_y": 225,
    "trial_type": "psychophysics",
    "trial_index": 96,
    "plugin_version": "4.0.0",
    "time_elapsed": 234218
  },
  {
    "rt": null,
    "response_type": "key",
    "key_press": null,
    "response": null,
    "avg_frame_time": 6.943661971830986,
    "center_x": 400,
    "center_y": 225,
    "trial_type": "psychophysics",
    "trial_index": 97,
    "plugin_version": "4.0.0",
    "time_elapsed": 234720
  },
  {
    "image1": "https://jatos.mindprobe.eu/publix/dc5cc523-e135-47a0-8729-15898506814c/dist/1d4fc1100b57f312ef6f7e81e8502a85.webp",
    "image2": "https://jatos.mindprobe.eu/publix/dc5cc523-e135-47a0-8729-15898506814c/dist/f133a138299afe57854b3487f1de2960.webp",
    "grid_items": [
      {
        "letter": "",
        "color": "white"
      },
      {
        "letter": "",
        "color": "white"
      },
      {
        "letter": "",
        "color": "white"
      },
      {
        "letter": "",
        "color": "white"
      },
      {
        "letter": "K",
        "color": "black"
      },
      {
        "letter": "P",
        "color": "black"
      },
      {
        "letter": "F",
        "color": "black"
      },
      {
        "letter": "B",
        "color": "black"
      }
    ],
    "target": {
      "letter": "K",
      "color": "black"
    },
    "gaze_direction": "right",
    "grid_position": "right",
    "target_type": "valid",
    "block": "block-1",
    "face": "e",
    "window": {
      "dimensions": [
        1080,
        1920
      ],
      "isFullscreen": "BODY"
    },
    "rt": 1373,
    "response_type": "key",
    "key_press": "ArrowUp",
    "response": "ArrowUp",
    "avg_frame_time": 6.945851528384263,
    "center_x": 400,
    "center_y": 225,
    "trial_type": "psychophysics",
    "trial_index": 98,
    "plugin_version": "4.0.0",
    "time_elapsed": 239505
  },
  {
    "rt": null,
    "response_type": "key",
    "key_press": null,
    "response": null,
    "avg_frame_time": 6.945070422534883,
    "center_x": 400,
    "center_y": 225,
    "trial_type": "psychophysics",
    "trial_index": 99,
    "plugin_version": "4.0.0",
    "time_elapsed": 240006
  },
  {
    "image1": "https://jatos.mindprobe.eu/publix/dc5cc523-e135-47a0-8729-15898506814c/dist/40dece98c751976c5ae971fb799b576a.webp",
    "image2": "https://jatos.mindprobe.eu/publix/dc5cc523-e135-47a0-8729-15898506814c/dist/539bb0274850bc5c179b9239bd4821e4.webp",
    "grid_items": [
      {
        "letter": "",
        "color": "white"
      },
      {
        "letter": "",
        "color": "white"
      },
      {
        "letter": "",
        "color": "white"
      },
      {
        "letter": "",
        "color": "white"
      },
      {
        "letter": "P",
        "color": "black"
      },
      {
        "letter": "G",
        "color": "black"
      },
      {
        "letter": "S",
        "color": "black"
      },
      {
        "letter": "N",
        "color": "black"
      }
    ],
    "target": {
      "letter": "N",
      "color": "black"
    },
    "gaze_direction": "left",
    "grid_position": "right",
    "target_type": "valid",
    "block": "block-1",
    "face": "b",
    "window": {
      "dimensions": [
        1080,
        1920
      ],
      "isFullscreen": "BODY"
    },
    "rt": 954,
    "response_type": "key",
    "key_press": "ArrowDown",
    "response": "ArrowDown",
    "avg_frame_time": 6.945773524720893,
    "center_x": 400,
    "center_y": 225,
    "trial_type": "psychophysics",
    "trial_index": 100,
    "plugin_version": "4.0.0",
    "time_elapsed": 244372
  },
  {
    "rt": null,
    "response_type": "key",
    "key_press": null,
    "response": null,
    "avg_frame_time": 6.946478873239191,
    "center_x": 400,
    "center_y": 225,
    "trial_type": "psychophysics",
    "trial_index": 101,
    "plugin_version": "4.0.0",
    "time_elapsed": 244874
  },
  {
    "image1": "https://jatos.mindprobe.eu/publix/dc5cc523-e135-47a0-8729-15898506814c/dist/40dece98c751976c5ae971fb799b576a.webp",
    "image2": "https://jatos.mindprobe.eu/publix/dc5cc523-e135-47a0-8729-15898506814c/dist/a0953907ed0c4f557cc32072c240bdb4.webp",
    "grid_items": [
      {
        "letter": "H",
        "color": "black"
      },
      {
        "letter": "D",
        "color": "black"
      },
      {
        "letter": "T",
        "color": "black"
      },
      {
        "letter": "C",
        "color": "black"
      },
      {
        "letter": "",
        "color": "white"
      },
      {
        "letter": "",
        "color": "white"
      },
      {
        "letter": "",
        "color": "white"
      },
      {
        "letter": "",
        "color": "white"
      }
    ],
    "target": {
      "letter": "D",
      "color": "black"
    },
    "gaze_direction": "right",
    "grid_position": "left",
    "target_type": "valid",
    "block": "block-1",
    "face": "b",
    "window": {
      "dimensions": [
        1080,
        1920
      ],
      "isFullscreen": "BODY"
    },
    "rt": 513,
    "response_type": "key",
    "key_press": "ArrowUp",
    "response": "ArrowUp",
    "avg_frame_time": 6.945825932504441,
    "center_x": 400,
    "center_y": 225,
    "trial_type": "psychophysics",
    "trial_index": 102,
    "plugin_version": "4.0.0",
    "time_elapsed": 248798
  },
  {
    "rt": null,
    "response_type": "key",
    "key_press": null,
    "response": null,
    "avg_frame_time": 6.945070422535293,
    "center_x": 400,
    "center_y": 225,
    "trial_type": "psychophysics",
    "trial_index": 103,
    "plugin_version": "4.0.0",
    "time_elapsed": 249300
  },
  {
    "image1": "https://jatos.mindprobe.eu/publix/dc5cc523-e135-47a0-8729-15898506814c/dist/36ce3cf01c34ab194e87cdb81ee9890f.webp",
    "image2": "https://jatos.mindprobe.eu/publix/dc5cc523-e135-47a0-8729-15898506814c/dist/7abc9556bd3afc91e874c19e0dfb4358.webp",
    "grid_items": [
      {
        "letter": "",
        "color": "white"
      },
      {
        "letter": "",
        "color": "white"
      },
      {
        "letter": "",
        "color": "white"
      },
      {
        "letter": "",
        "color": "white"
      },
      {
        "letter": "B",
        "color": "black"
      },
      {
        "letter": "N",
        "color": "black"
      },
      {
        "letter": "P",
        "color": "black"
      },
      {
        "letter": "M",
        "color": "black"
      }
    ],
    "target": {
      "letter": "P",
      "color": "black"
    },
    "gaze_direction": "right",
    "grid_position": "right",
    "target_type": "valid",
    "block": "block-1",
    "face": "c",
    "window": {
      "dimensions": [
        1080,
        1920
      ],
      "isFullscreen": "BODY"
    },
    "rt": 725,
    "response_type": "key",
    "key_press": "ArrowUp",
    "response": "ArrowUp",
    "avg_frame_time": 6.945791245791275,
    "center_x": 400,
    "center_y": 225,
    "trial_type": "psychophysics",
    "trial_index": 104,
    "plugin_version": "4.0.0",
    "time_elapsed": 253437
  },
  {
    "rt": null,
    "response_type": "key",
    "key_press": null,
    "response": null,
    "avg_frame_time": 6.945070422534883,
    "center_x": 400,
    "center_y": 225,
    "trial_type": "psychophysics",
    "trial_index": 105,
    "plugin_version": "4.0.0",
    "time_elapsed": 253939
  },
  {
    "image1": "https://jatos.mindprobe.eu/publix/dc5cc523-e135-47a0-8729-15898506814c/dist/d429c5287be0e7ceba842a59a42841aa.webp",
    "image2": "https://jatos.mindprobe.eu/publix/dc5cc523-e135-47a0-8729-15898506814c/dist/7c19086664cedcdfc2bed264c3b04bfa.webp",
    "grid_items": [
      {
        "letter": "",
        "color": "white"
      },
      {
        "letter": "",
        "color": "white"
      },
      {
        "letter": "",
        "color": "white"
      },
      {
        "letter": "",
        "color": "white"
      },
      {
        "letter": "T",
        "color": "black"
      },
      {
        "letter": "L",
        "color": "black"
      },
      {
        "letter": "C",
        "color": "black"
      },
      {
        "letter": "D",
        "color": "black"
      }
    ],
    "target": {
      "letter": "T",
      "color": "black"
    },
    "gaze_direction": "left",
    "grid_position": "right",
    "target_type": "valid",
    "block": "block-1",
    "face": "f",
    "window": {
      "dimensions": [
        1080,
        1920
      ],
      "isFullscreen": "BODY"
    },
    "rt": 854,
    "response_type": "key",
    "key_press": "ArrowUp",
    "response": "ArrowUp",
    "avg_frame_time": 6.945588235294089,
    "center_x": 400,
    "center_y": 225,
    "trial_type": "psychophysics",
    "trial_index": 106,
    "plugin_version": "4.0.0",
    "time_elapsed": 258204
  },
  {
    "rt": null,
    "response_type": "key",
    "key_press": null,
    "response": null,
    "avg_frame_time": 6.947887323943498,
    "center_x": 400,
    "center_y": 225,
    "trial_type": "psychophysics",
    "trial_index": 107,
    "plugin_version": "4.0.0",
    "time_elapsed": 258707
  },
  {
    "image1": "https://jatos.mindprobe.eu/publix/dc5cc523-e135-47a0-8729-15898506814c/dist/1d4fc1100b57f312ef6f7e81e8502a85.webp",
    "image2": "https://jatos.mindprobe.eu/publix/dc5cc523-e135-47a0-8729-15898506814c/dist/f133a138299afe57854b3487f1de2960.webp",
    "grid_items": [
      {
        "letter": "",
        "color": "white"
      },
      {
        "letter": "",
        "color": "white"
      },
      {
        "letter": "",
        "color": "white"
      },
      {
        "letter": "",
        "color": "white"
      },
      {
        "letter": "C",
        "color": "black"
      },
      {
        "letter": "S",
        "color": "black"
      },
      {
        "letter": "T",
        "color": "black"
      },
      {
        "letter": "L",
        "color": "black"
      }
    ],
    "target": {
      "letter": "H",
      "color": "black"
    },
    "gaze_direction": "right",
    "grid_position": "right",
    "target_type": "invalid",
    "block": "block-1",
    "face": "e",
    "window": {
      "dimensions": [
        1080,
        1920
      ],
      "isFullscreen": "BODY"
    },
    "rt": 848,
    "response_type": "key",
    "key_press": "ArrowDown",
    "response": "ArrowDown",
    "avg_frame_time": 6.945751633986909,
    "center_x": 400,
    "center_y": 225,
    "trial_type": "psychophysics",
    "trial_index": 108,
    "plugin_version": "4.0.0",
    "time_elapsed": 262968
  },
  {
    "rt": null,
    "response_type": "key",
    "key_press": null,
    "response": null,
    "avg_frame_time": 6.946478873239601,
    "center_x": 400,
    "center_y": 225,
    "trial_type": "psychophysics",
    "trial_index": 109,
    "plugin_version": "4.0.0",
    "time_elapsed": 263470
  },
  {
    "image1": "https://jatos.mindprobe.eu/publix/dc5cc523-e135-47a0-8729-15898506814c/dist/d429c5287be0e7ceba842a59a42841aa.webp",
    "image2": "https://jatos.mindprobe.eu/publix/dc5cc523-e135-47a0-8729-15898506814c/dist/9e284198aaef8c500a1145e962e8a4d0.webp",
    "grid_items": [
      {
        "letter": "",
        "color": "white"
      },
      {
        "letter": "",
        "color": "white"
      },
      {
        "letter": "",
        "color": "white"
      },
      {
        "letter": "",
        "color": "white"
      },
      {
        "letter": "R",
        "color": "black"
      },
      {
        "letter": "C",
        "color": "black"
      },
      {
        "letter": "M",
        "color": "black"
      },
      {
        "letter": "F",
        "color": "black"
      }
    ],
    "target": {
      "letter": "R",
      "color": "black"
    },
    "gaze_direction": "right",
    "grid_position": "right",
    "target_type": "valid",
    "block": "block-1",
    "face": "f",
    "window": {
      "dimensions": [
        1080,
        1920
      ],
      "isFullscreen": "BODY"
    },
    "rt": 696,
    "response_type": "key",
    "key_press": "ArrowUp",
    "response": "ArrowUp",
    "avg_frame_time": 6.945593220339022,
    "center_x": 400,
    "center_y": 225,
    "trial_type": "psychophysics",
    "trial_index": 110,
    "plugin_version": "4.0.0",
    "time_elapsed": 267579
  },
  {
    "rt": null,
    "response_type": "key",
    "key_press": null,
    "response": null,
    "avg_frame_time": 6.945070422534883,
    "center_x": 400,
    "center_y": 225,
    "trial_type": "psychophysics",
    "trial_index": 111,
    "plugin_version": "4.0.0",
    "time_elapsed": 268081
  },
  {
    "image1": "https://jatos.mindprobe.eu/publix/dc5cc523-e135-47a0-8729-15898506814c/dist/40dece98c751976c5ae971fb799b576a.webp",
    "image2": "https://jatos.mindprobe.eu/publix/dc5cc523-e135-47a0-8729-15898506814c/dist/539bb0274850bc5c179b9239bd4821e4.webp",
    "grid_items": [
      {
        "letter": "",
        "color": "white"
      },
      {
        "letter": "",
        "color": "white"
      },
      {
        "letter": "",
        "color": "white"
      },
      {
        "letter": "",
        "color": "white"
      },
      {
        "letter": "D",
        "color": "black"
      },
      {
        "letter": "G",
        "color": "black"
      },
      {
        "letter": "C",
        "color": "black"
      },
      {
        "letter": "R",
        "color": "black"
      }
    ],
    "target": {
      "letter": "H",
      "color": "black"
    },
    "gaze_direction": "left",
    "grid_position": "right",
    "target_type": "invalid",
    "block": "block-1",
    "face": "b",
    "window": {
      "dimensions": [
        1080,
        1920
      ],
      "isFullscreen": "BODY"
    },
    "rt": 966,
    "response_type": "key",
    "key_press": "ArrowDown",
    "response": "ArrowDown",
    "avg_frame_time": 6.945786963433966,
    "center_x": 400,
    "center_y": 225,
    "trial_type": "psychophysics",
    "trial_index": 112,
    "plugin_version": "4.0.0",
    "time_elapsed": 272460
  },
  {
    "rt": null,
    "response_type": "key",
    "key_press": null,
    "response": null,
    "avg_frame_time": 6.945070422534883,
    "center_x": 400,
    "center_y": 225,
    "trial_type": "psychophysics",
    "trial_index": 113,
    "plugin_version": "4.0.0",
    "time_elapsed": 272962
  },
  {
    "image1": "https://jatos.mindprobe.eu/publix/dc5cc523-e135-47a0-8729-15898506814c/dist/36ce3cf01c34ab194e87cdb81ee9890f.webp",
    "image2": "https://jatos.mindprobe.eu/publix/dc5cc523-e135-47a0-8729-15898506814c/dist/7abc9556bd3afc91e874c19e0dfb4358.webp",
    "grid_items": [
      {
        "letter": "T",
        "color": "black"
      },
      {
        "letter": "D",
        "color": "black"
      },
      {
        "letter": "M",
        "color": "black"
      },
      {
        "letter": "G",
        "color": "black"
      },
      {
        "letter": "",
        "color": "white"
      },
      {
        "letter": "",
        "color": "white"
      },
      {
        "letter": "",
        "color": "white"
      },
      {
        "letter": "",
        "color": "white"
      }
    ],
    "target": {
      "letter": "M",
      "color": "black"
    },
    "gaze_direction": "right",
    "grid_position": "left",
    "target_type": "valid",
    "block": "block-1",
    "face": "c",
    "window": {
      "dimensions": [
        1080,
        1920
      ],
      "isFullscreen": "BODY"
    },
    "rt": 1158,
    "response_type": "key",
    "key_press": "ArrowUp",
    "response": "ArrowUp",
    "avg_frame_time": 6.9457317073170195,
    "center_x": 400,
    "center_y": 225,
    "trial_type": "psychophysics",
    "trial_index": 114,
    "plugin_version": "4.0.0",
    "time_elapsed": 277536
  },
  {
    "rt": null,
    "response_type": "key",
    "key_press": null,
    "response": null,
    "avg_frame_time": 6.947222222222384,
    "center_x": 400,
    "center_y": 225,
    "trial_type": "psychophysics",
    "trial_index": 115,
    "plugin_version": "4.0.0",
    "time_elapsed": 278037
  },
  {
    "image1": "https://jatos.mindprobe.eu/publix/dc5cc523-e135-47a0-8729-15898506814c/dist/d429c5287be0e7ceba842a59a42841aa.webp",
    "image2": "https://jatos.mindprobe.eu/publix/dc5cc523-e135-47a0-8729-15898506814c/dist/9e284198aaef8c500a1145e962e8a4d0.webp",
    "grid_items": [
      {
        "letter": "C",
        "color": "black"
      },
      {
        "letter": "G",
        "color": "black"
      },
      {
        "letter": "R",
        "color": "black"
      },
      {
        "letter": "N",
        "color": "black"
      },
      {
        "letter": "",
        "color": "white"
      },
      {
        "letter": "",
        "color": "white"
      },
      {
        "letter": "",
        "color": "white"
      },
      {
        "letter": "",
        "color": "white"
      }
    ],
    "target": {
      "letter": "R",
      "color": "black"
    },
    "gaze_direction": "right",
    "grid_position": "left",
    "target_type": "valid",
    "block": "block-1",
    "face": "f",
    "window": {
      "dimensions": [
        1080,
        1920
      ],
      "isFullscreen": "BODY"
    },
    "rt": 585,
    "response_type": "key",
    "key_press": "ArrowUp",
    "response": "ArrowUp",
    "avg_frame_time": 6.945724258289744,
    "center_x": 400,
    "center_y": 225,
    "trial_type": "psychophysics",
    "trial_index": 116,
    "plugin_version": "4.0.0",
    "time_elapsed": 282037
  },
  {
    "rt": null,
    "response_type": "key",
    "key_press": null,
    "response": null,
    "avg_frame_time": 6.947222222222384,
    "center_x": 400,
    "center_y": 225,
    "trial_type": "psychophysics",
    "trial_index": 117,
    "plugin_version": "4.0.0",
    "time_elapsed": 282538
  },
  {
    "image1": "https://jatos.mindprobe.eu/publix/dc5cc523-e135-47a0-8729-15898506814c/dist/1d4fc1100b57f312ef6f7e81e8502a85.webp",
    "image2": "https://jatos.mindprobe.eu/publix/dc5cc523-e135-47a0-8729-15898506814c/dist/f133a138299afe57854b3487f1de2960.webp",
    "grid_items": [
      {
        "letter": "P",
        "color": "black"
      },
      {
        "letter": "K",
        "color": "black"
      },
      {
        "letter": "H",
        "color": "black"
      },
      {
        "letter": "R",
        "color": "black"
      },
      {
        "letter": "",
        "color": "white"
      },
      {
        "letter": "",
        "color": "white"
      },
      {
        "letter": "",
        "color": "white"
      },
      {
        "letter": "",
        "color": "white"
      }
    ],
    "target": {
      "letter": "N",
      "color": "black"
    },
    "gaze_direction": "right",
    "grid_position": "left",
    "target_type": "invalid",
    "block": "block-1",
    "face": "e",
    "window": {
      "dimensions": [
        1080,
        1920
      ],
      "isFullscreen": "BODY"
    },
    "rt": 872,
    "response_type": "key",
    "key_press": "ArrowDown",
    "response": "ArrowDown",
    "avg_frame_time": 6.945691056910626,
    "center_x": 400,
    "center_y": 225,
    "trial_type": "psychophysics",
    "trial_index": 118,
    "plugin_version": "4.0.0",
    "time_elapsed": 286825
  },
  {
    "rt": null,
