[
  {
    "success": true,
    "timeout": false,
    "failed_images": [],
    "failed_audio": [],
    "failed_video": [],
    "trial_type": "preload",
    "trial_index": 0,
    "plugin_version": "2.1.0",
    "time_elapsed": 3440
  },
  {
    "rt": 5253,
    "response": " ",
    "trial_type": "html-keyboard-response",
    "trial_index": 1,
    "plugin_version": "2.1.0",
    "time_elapsed": 8693
  },
  {
    "image1": "https://jatos.mindprobe.eu/publix/57c0fd80-81b3-4ba6-a41e-3f97f3d76ba1/dist/40dece98c751976c5ae971fb799b576a.webp",
    "image2": "https://jatos.mindprobe.eu/publix/57c0fd80-81b3-4ba6-a41e-3f97f3d76ba1/dist/a0953907ed0c4f557cc32072c240bdb4.webp",
    "grid_items": [
      {
        "letter": "",
        "color": "white"
      },
      {
        "letter": "",
        "color": "white"
      },
      {
        "letter": "",
        "color": "white"
      },
      {
        "letter": "",
        "color": "white"
      },
      {
        "letter": "L",
        "color": "black"
      },
      {
        "letter": "K",
        "color": "black"
      },
      {
        "letter": "T",
        "color": "black"
      },
      {
        "letter": "D",
        "color": "black"
      }
    ],
    "target": {
      "letter": "S",
      "color": "black"
    },
    "gaze_direction": "right",
    "grid_position": "right",
    "target_type": "invalid",
    "block": "practice",
    "face": "b",
    "window": {
      "dimensions": [
        1080,
        1920
      ],
      "isFullscreen": "BODY"
    },
    "rt": 1477,
    "response_type": "key",
    "key_press": "ArrowDown",
    "response": "ArrowDown",
    "avg_frame_time": 16.684246575342463,
    "center_x": 400,
    "center_y": 225,
    "trial_type": "psychophysics",
    "trial_index": 2,
    "plugin_version": "4.0.0",
    "time_elapsed": 13589
  },
  {
    "rt": null,
    "response_type": "key",
    "key_press": null,
    "response": null,
    "avg_frame_time": 16.68620689655165,
    "center_x": 400,
    "center_y": 225,
    "trial_type": "psychophysics",
    "trial_index": 3,
    "plugin_version": "4.0.0",
    "time_elapsed": 14097
  },
  {
    "image1": "https://jatos.mindprobe.eu/publix/57c0fd80-81b3-4ba6-a41e-3f97f3d76ba1/dist/1d4fc1100b57f312ef6f7e81e8502a85.webp",
    "image2": "https://jatos.mindprobe.eu/publix/57c0fd80-81b3-4ba6-a41e-3f97f3d76ba1/dist/f133a138299afe57854b3487f1de2960.webp",
    "grid_items": [
      {
        "letter": "",
        "color": "white"
      },
      {
        "letter": "",
        "color": "white"
      },
      {
        "letter": "",
        "color": "white"
      },
      {
        "letter": "",
        "color": "white"
      },
      {
        "letter": "T",
        "color": "black"
      },
      {
        "letter": "L",
        "color": "black"
      },
      {
        "letter": "S",
        "color": "black"
      },
      {
        "letter": "K",
        "color": "black"
      }
    ],
    "target": {
      "letter": "R",
      "color": "black"
    },
    "gaze_direction": "right",
    "grid_position": "right",
    "target_type": "invalid",
    "block": "practice",
    "face": "e",
    "window": {
      "dimensions": [
        1080,
        1920
      ],
      "isFullscreen": "BODY"
    },
    "rt": 960,
    "response_type": "key",
    "key_press": "ArrowDown",
    "response": "ArrowDown",
    "avg_frame_time": 16.68384615384615,
    "center_x": 400,
    "center_y": 225,
    "trial_type": "psychophysics",
    "trial_index": 4,
    "plugin_version": "4.0.0",
    "time_elapsed": 18461
  },
  {
    "rt": null,
    "response_type": "key",
    "key_press": null,
    "response": null,
    "avg_frame_time": 16.68275862068963,
    "center_x": 400,
    "center_y": 225,
    "trial_type": "psychophysics",
    "trial_index": 5,
    "plugin_version": "4.0.0",
    "time_elapsed": 18967
  },
  {
    "image1": "https://jatos.mindprobe.eu/publix/57c0fd80-81b3-4ba6-a41e-3f97f3d76ba1/dist/d429c5287be0e7ceba842a59a42841aa.webp",
    "image2": "https://jatos.mindprobe.eu/publix/57c0fd80-81b3-4ba6-a41e-3f97f3d76ba1/dist/7c19086664cedcdfc2bed264c3b04bfa.webp",
    "grid_items": [
      {
        "letter": "H",
        "color": "black"
      },
      {
        "letter": "S",
        "color": "black"
      },
      {
        "letter": "R",
        "color": "black"
      },
      {
        "letter": "B",
        "color": "black"
      },
      {
        "letter": "",
        "color": "white"
      },
      {
        "letter": "",
        "color": "white"
      },
      {
        "letter": "",
        "color": "white"
      },
      {
        "letter": "",
        "color": "white"
      }
    ],
    "target": {
      "letter": "N",
      "color": "black"
    },
    "gaze_direction": "left",
    "grid_position": "left",
    "target_type": "invalid",
    "block": "practice",
    "face": "f",
    "window": {
      "dimensions": [
        1080,
        1920
      ],
      "isFullscreen": "BODY"
    },
    "rt": 657,
    "response_type": "key",
    "key_press": "ArrowDown",
    "response": "ArrowDown",
    "avg_frame_time": 16.68388429752066,
    "center_x": 400,
    "center_y": 225,
    "trial_type": "psychophysics",
    "trial_index": 6,
    "plugin_version": "4.0.0",
    "time_elapsed": 23029
  },
  {
    "rt": null,
    "response_type": "key",
    "key_press": null,
    "response": null,
    "avg_frame_time": 16.686206896551774,
    "center_x": 400,
    "center_y": 225,
    "trial_type": "psychophysics",
    "trial_index": 7,
    "plugin_version": "4.0.0",
    "time_elapsed": 23540
  },
  {
    "image1": "https://jatos.mindprobe.eu/publix/57c0fd80-81b3-4ba6-a41e-3f97f3d76ba1/dist/36ce3cf01c34ab194e87cdb81ee9890f.webp",
    "image2": "https://jatos.mindprobe.eu/publix/57c0fd80-81b3-4ba6-a41e-3f97f3d76ba1/dist/7abc9556bd3afc91e874c19e0dfb4358.webp",
    "grid_items": [
      {
        "letter": "",
        "color": "white"
      },
      {
        "letter": "",
        "color": "white"
      },
      {
        "letter": "",
        "color": "white"
      },
      {
        "letter": "",
        "color": "white"
      },
      {
        "letter": "B",
        "color": "black"
      },
      {
        "letter": "M",
        "color": "black"
      },
      {
        "letter": "G",
        "color": "black"
      },
      {
        "letter": "R",
        "color": "black"
      }
    ],
    "target": {
      "letter": "C",
      "color": "black"
    },
    "gaze_direction": "right",
    "grid_position": "right",
    "target_type": "invalid",
    "block": "practice",
    "face": "c",
    "window": {
      "dimensions": [
        1080,
        1920
      ],
      "isFullscreen": "BODY"
    },
    "rt": 1445,
    "response_type": "key",
    "key_press": "ArrowDown",
    "response": "ArrowDown",
    "avg_frame_time": 16.684083044982703,
    "center_x": 400,
    "center_y": 225,
    "trial_type": "psychophysics",
    "trial_index": 8,
    "plugin_version": "4.0.0",
    "time_elapsed": 28389
  },
  {
    "rt": null,
    "response_type": "key",
    "key_press": null,
    "response": null,
    "avg_frame_time": 16.686206896551774,
    "center_x": 400,
    "center_y": 225,
    "trial_type": "psychophysics",
    "trial_index": 9,
    "plugin_version": "4.0.0",
    "time_elapsed": 28896
  },
  {
    "image1": "https://jatos.mindprobe.eu/publix/57c0fd80-81b3-4ba6-a41e-3f97f3d76ba1/dist/40dece98c751976c5ae971fb799b576a.webp",
    "image2": "https://jatos.mindprobe.eu/publix/57c0fd80-81b3-4ba6-a41e-3f97f3d76ba1/dist/a0953907ed0c4f557cc32072c240bdb4.webp",
    "grid_items": [
      {
        "letter": "K",
        "color": "black"
      },
      {
        "letter": "D",
        "color": "black"
      },
      {
        "letter": "G",
        "color": "black"
      },
      {
        "letter": "R",
        "color": "black"
      },
      {
        "letter": "",
        "color": "white"
      },
      {
        "letter": "",
        "color": "white"
      },
      {
        "letter": "",
        "color": "white"
      },
      {
        "letter": "",
        "color": "white"
      }
    ],
    "target": {
      "letter": "G",
      "color": "black"
    },
    "gaze_direction": "right",
    "grid_position": "left",
    "target_type": "valid",
    "block": "practice",
    "face": "b",
    "window": {
      "dimensions": [
        1080,
        1920
      ],
      "isFullscreen": "BODY"
    },
    "rt": 1490,
    "response_type": "key",
    "key_press": "ArrowDown",
    "response": "ArrowDown",
    "avg_frame_time": 16.68390410958903,
    "center_x": 400,
    "center_y": 225,
    "trial_type": "psychophysics",
    "trial_index": 10,
    "plugin_version": "4.0.0",
    "time_elapsed": 33789
  },
  {
    "rt": null,
    "response_type": "key",
    "key_press": null,
    "response": null,
    "avg_frame_time": 16.682758620689505,
    "center_x": 400,
    "center_y": 225,
    "trial_type": "psychophysics",
    "trial_index": 11,
    "plugin_version": "4.0.0",
    "time_elapsed": 34301
  },
  {
    "image1": "https://jatos.mindprobe.eu/publix/57c0fd80-81b3-4ba6-a41e-3f97f3d76ba1/dist/0738b36f5c5284a1fbe6de5047928226.webp",
    "image2": "https://jatos.mindprobe.eu/publix/57c0fd80-81b3-4ba6-a41e-3f97f3d76ba1/dist/c2c6af7a7e254bf30109d9388b53b5d8.webp",
    "grid_items": [
      {
        "letter": "L",
        "color": "black"
      },
      {
        "letter": "P",
        "color": "black"
      },
      {
        "letter": "M",
        "color": "black"
      },
      {
        "letter": "S",
        "color": "black"
      },
      {
        "letter": "",
        "color": "white"
      },
      {
        "letter": "",
        "color": "white"
      },
      {
        "letter": "",
        "color": "white"
      },
      {
        "letter": "",
        "color": "white"
      }
    ],
    "target": {
      "letter": "S",
      "color": "black"
    },
    "gaze_direction": "left",
    "grid_position": "left",
    "target_type": "valid",
    "block": "practice",
    "face": "d",
    "window": {
      "dimensions": [
        1080,
        1920
      ],
      "isFullscreen": "BODY"
    },
    "rt": 843,
    "response_type": "key",
    "key_press": "ArrowDown",
    "response": "ArrowDown",
    "avg_frame_time": 16.684189723320152,
    "center_x": 400,
    "center_y": 225,
    "trial_type": "psychophysics",
    "trial_index": 12,
    "plugin_version": "4.0.0",
    "time_elapsed": 38549
  },
  {
    "rt": null,
    "response_type": "key",
    "key_press": null,
    "response": null,
    "avg_frame_time": 16.682758620689757,
    "center_x": 400,
    "center_y": 225,
    "trial_type": "psychophysics",
    "trial_index": 13,
    "plugin_version": "4.0.0",
    "time_elapsed": 39051
  },
  {
    "image1": "https://jatos.mindprobe.eu/publix/57c0fd80-81b3-4ba6-a41e-3f97f3d76ba1/dist/0738b36f5c5284a1fbe6de5047928226.webp",
    "image2": "https://jatos.mindprobe.eu/publix/57c0fd80-81b3-4ba6-a41e-3f97f3d76ba1/dist/48e5157934b56d46aee0926365abe09d.webp",
    "grid_items": [
      {
        "letter": "H",
        "color": "black"
      },
      {
        "letter": "M",
        "color": "black"
      },
      {
        "letter": "D",
        "color": "black"
      },
      {
        "letter": "R",
        "color": "black"
      },
      {
        "letter": "",
        "color": "white"
      },
      {
        "letter": "",
        "color": "white"
      },
      {
        "letter": "",
        "color": "white"
      },
      {
        "letter": "",
        "color": "white"
      }
    ],
    "target": {
      "letter": "N",
      "color": "black"
    },
    "gaze_direction": "right",
    "grid_position": "left",
    "target_type": "invalid",
    "block": "practice",
    "face": "d",
    "window": {
      "dimensions": [
        1080,
        1920
      ],
      "isFullscreen": "BODY"
    },
    "rt": 590,
    "response_type": "key",
    "key_press": "ArrowUp",
    "response": "ArrowUp",
    "avg_frame_time": 16.684100418410043,
    "center_x": 400,
    "center_y": 225,
    "trial_type": "psychophysics",
    "trial_index": 14,
    "plugin_version": "4.0.0",
    "time_elapsed": 43045
  },
  {
    "rt": null,
    "response_type": "key",
    "key_press": null,
    "response": null,
    "avg_frame_time": 16.682758620689505,
    "center_x": 400,
    "center_y": 225,
    "trial_type": "psychophysics",
    "trial_index": 15,
    "plugin_version": "4.0.0",
    "time_elapsed": 43547
  },
  {
    "image1": "https://jatos.mindprobe.eu/publix/57c0fd80-81b3-4ba6-a41e-3f97f3d76ba1/dist/36ce3cf01c34ab194e87cdb81ee9890f.webp",
    "image2": "https://jatos.mindprobe.eu/publix/57c0fd80-81b3-4ba6-a41e-3f97f3d76ba1/dist/6ef25f867bb912257ed8a75458a113f3.webp",
    "grid_items": [
      {
        "letter": "B",
        "color": "black"
      },
      {
        "letter": "K",
        "color": "black"
      },
      {
        "letter": "H",
        "color": "black"
      },
      {
        "letter": "S",
        "color": "black"
      },
      {
        "letter": "",
        "color": "white"
      },
      {
        "letter": "",
        "color": "white"
      },
      {
        "letter": "",
        "color": "white"
      },
      {
        "letter": "",
        "color": "white"
      }
    ],
    "target": {
      "letter": "B",
      "color": "black"
    },
    "gaze_direction": "left",
    "grid_position": "left",
    "target_type": "valid",
    "block": "practice",
    "face": "c",
    "window": {
      "dimensions": [
        1080,
        1920
      ],
      "isFullscreen": "BODY"
    },
    "rt": 1037,
    "response_type": "key",
    "key_press": "ArrowUp",
    "response": "ArrowUp",
    "avg_frame_time": 16.68415094339621,
    "center_x": 400,
    "center_y": 225,
    "trial_type": "psychophysics",
    "trial_index": 16,
    "plugin_version": "4.0.0",
    "time_elapsed": 47989
  },
  {
    "rt": null,
    "response_type": "key",
    "key_press": null,
    "response": null,
    "avg_frame_time": 16.679310344827485,
    "center_x": 400,
    "center_y": 225,
    "trial_type": "psychophysics",
    "trial_index": 17,
    "plugin_version": "4.0.0",
    "time_elapsed": 48490
  },
  {
    "image1": "https://jatos.mindprobe.eu/publix/57c0fd80-81b3-4ba6-a41e-3f97f3d76ba1/dist/b2b7faaf2a59bb4bdfcb862858551c57.webp",
    "image2": "https://jatos.mindprobe.eu/publix/57c0fd80-81b3-4ba6-a41e-3f97f3d76ba1/dist/a2b978bad27da55c204371f73357f1d7.webp",
    "grid_items": [
      {
        "letter": "",
        "color": "white"
      },
      {
        "letter": "",
        "color": "white"
      },
      {
        "letter": "",
        "color": "white"
      },
      {
        "letter": "",
        "color": "white"
      },
      {
        "letter": "T",
        "color": "black"
      },
      {
        "letter": "R",
        "color": "black"
      },
      {
        "letter": "G",
        "color": "black"
      },
      {
        "letter": "S",
        "color": "black"
      }
    ],
    "target": {
      "letter": "D",
      "color": "black"
    },
    "gaze_direction": "left",
    "grid_position": "right",
    "target_type": "invalid",
    "block": "practice",
    "face": "a",
    "window": {
      "dimensions": [
        1080,
        1920
      ],
      "isFullscreen": "BODY"
    },
    "rt": 1261,
    "response_type": "key",
    "key_press": "ArrowDown",
    "response": "ArrowDown",
    "avg_frame_time": 16.68387096774192,
    "center_x": 400,
    "center_y": 225,
    "trial_type": "psychophysics",
    "trial_index": 18,
    "plugin_version": "4.0.0",
    "time_elapsed": 53157
  },
  {
    "rt": null,
    "response_type": "key",
    "key_press": null,
    "response": null,
    "avg_frame_time": 16.682758620689505,
    "center_x": 400,
    "center_y": 225,
    "trial_type": "psychophysics",
    "trial_index": 19,
    "plugin_version": "4.0.0",
    "time_elapsed": 53659
  },
  {
    "image1": "https://jatos.mindprobe.eu/publix/57c0fd80-81b3-4ba6-a41e-3f97f3d76ba1/dist/b2b7faaf2a59bb4bdfcb862858551c57.webp",
    "image2": "https://jatos.mindprobe.eu/publix/57c0fd80-81b3-4ba6-a41e-3f97f3d76ba1/dist/a2b978bad27da55c204371f73357f1d7.webp",
    "grid_items": [
      {
        "letter": "D",
        "color": "black"
      },
      {
        "letter": "B",
        "color": "black"
      },
      {
        "letter": "T",
        "color": "black"
      },
      {
        "letter": "F",
        "color": "black"
      },
      {
        "letter": "",
        "color": "white"
      },
      {
        "letter": "",
        "color": "white"
      },
      {
        "letter": "",
        "color": "white"
      },
      {
        "letter": "",
        "color": "white"
      }
    ],
    "target": {
      "letter": "D",
      "color": "black"
    },
    "gaze_direction": "left",
    "grid_position": "left",
    "target_type": "valid",
    "block": "practice",
    "face": "a",
    "window": {
      "dimensions": [
        1080,
        1920
      ],
      "isFullscreen": "BODY"
    },
    "rt": 620,
    "response_type": "key",
    "key_press": "ArrowUp",
    "response": "ArrowUp",
    "avg_frame_time": 16.684166666666655,
    "center_x": 400,
    "center_y": 225,
    "trial_type": "psychophysics",
    "trial_index": 20,
    "plugin_version": "4.0.0",
    "time_elapsed": 57685
  },
  {
    "rt": null,
    "response_type": "key",
    "key_press": null,
    "response": null,
    "avg_frame_time": 16.682758620689757,
    "center_x": 400,
    "center_y": 225,
    "trial_type": "psychophysics",
    "trial_index": 21,
    "plugin_version": "4.0.0",
    "time_elapsed": 58187
  },
  {
    "image1": "https://jatos.mindprobe.eu/publix/57c0fd80-81b3-4ba6-a41e-3f97f3d76ba1/dist/d429c5287be0e7ceba842a59a42841aa.webp",
    "image2": "https://jatos.mindprobe.eu/publix/57c0fd80-81b3-4ba6-a41e-3f97f3d76ba1/dist/9e284198aaef8c500a1145e962e8a4d0.webp",
    "grid_items": [
      {
        "letter": "",
        "color": "white"
      },
      {
        "letter": "",
        "color": "white"
      },
      {
        "letter": "",
        "color": "white"
      },
      {
        "letter": "",
        "color": "white"
      },
      {
        "letter": "C",
        "color": "black"
      },
      {
        "letter": "B",
        "color": "black"
      },
      {
        "letter": "T",
        "color": "black"
      },
      {
        "letter": "S",
        "color": "black"
      }
    ],
    "target": {
      "letter": "B",
      "color": "black"
    },
    "gaze_direction": "right",
    "grid_position": "right",
    "target_type": "valid",
    "block": "practice",
    "face": "f",
    "window": {
      "dimensions": [
        1080,
        1920
      ],
      "isFullscreen": "BODY"
    },
    "rt": 1028,
    "response_type": "key",
    "key_press": "ArrowUp",
    "response": "ArrowUp",
    "avg_frame_time": 16.684090909090905,
    "center_x": 400,
    "center_y": 225,
    "trial_type": "psychophysics",
    "trial_index": 22,
    "plugin_version": "4.0.0",
    "time_elapsed": 62621
  },
  {
    "rt": null,
    "response_type": "key",
    "key_press": null,
    "response": null,
    "avg_frame_time": 16.682758620689757,
    "center_x": 400,
    "center_y": 225,
    "trial_type": "psychophysics",
    "trial_index": 23,
    "plugin_version": "4.0.0",
    "time_elapsed": 63123
  },
  {
    "image1": "https://jatos.mindprobe.eu/publix/57c0fd80-81b3-4ba6-a41e-3f97f3d76ba1/dist/1d4fc1100b57f312ef6f7e81e8502a85.webp",
    "image2": "https://jatos.mindprobe.eu/publix/57c0fd80-81b3-4ba6-a41e-3f97f3d76ba1/dist/7aa52bcb2291ad2c1eab0a1c309e9ebe.webp",
    "grid_items": [
      {
        "letter": "C",
        "color": "black"
      },
      {
        "letter": "M",
        "color": "black"
      },
      {
        "letter": "F",
        "color": "black"
      },
      {
        "letter": "N",
        "color": "black"
      },
      {
        "letter": "",
        "color": "white"
      },
      {
        "letter": "",
        "color": "white"
      },
      {
        "letter": "",
        "color": "white"
      },
      {
        "letter": "",
        "color": "white"
      }
    ],
    "target": {
      "letter": "F",
      "color": "black"
    },
    "gaze_direction": "left",
    "grid_position": "left",
    "target_type": "valid",
    "block": "practice",
    "face": "e",
    "window": {
      "dimensions": [
        1080,
        1920
      ],
      "isFullscreen": "BODY"
    },
    "rt": 1187,
    "response_type": "key",
    "key_press": "ArrowUp",
    "response": "ArrowUp",
    "avg_frame_time": 16.683516483516506,
    "center_x": 400,
    "center_y": 225,
    "trial_type": "psychophysics",
    "trial_index": 24,
    "plugin_version": "4.0.0",
    "time_elapsed": 67717
  },
  {
    "rt": null,
    "response_type": "key",
    "key_press": null,
    "response": null,
    "avg_frame_time": 16.682758620689757,
    "center_x": 400,
    "center_y": 225,
    "trial_type": "psychophysics",
    "trial_index": 25,
    "plugin_version": "4.0.0",
    "time_elapsed": 68218
  },
  {
    "rt": 668,
    "response": 0,
    "trial_type": "html-button-response",
    "trial_index": 26,
    "plugin_version": "2.1.0",
    "time_elapsed": 68887
  },
  {
    "rt": 6141,
    "response": " ",
    "trial_type": "html-keyboard-response",
    "trial_index": 27,
    "plugin_version": "2.1.0",
    "time_elapsed": 75029
  },
  {
    "image1": "https://jatos.mindprobe.eu/publix/57c0fd80-81b3-4ba6-a41e-3f97f3d76ba1/dist/36ce3cf01c34ab194e87cdb81ee9890f.webp",
    "image2": "https://jatos.mindprobe.eu/publix/57c0fd80-81b3-4ba6-a41e-3f97f3d76ba1/dist/7abc9556bd3afc91e874c19e0dfb4358.webp",
    "grid_items": [
      {
        "letter": "",
        "color": "white"
      },
      {
        "letter": "",
        "color": "white"
      },
      {
        "letter": "",
        "color": "white"
      },
      {
        "letter": "",
        "color": "white"
      },
      {
        "letter": "H",
        "color": "black"
      },
      {
        "letter": "G",
        "color": "black"
      },
      {
        "letter": "S",
        "color": "black"
      },
      {
        "letter": "B",
        "color": "black"
      }
    ],
    "target": {
      "letter": "T",
      "color": "black"
    },
    "gaze_direction": "right",
    "grid_position": "right",
    "target_type": "invalid",
    "block": "block-1",
    "face": "c",
    "window": {
      "dimensions": [
        1080,
        1920
      ],
      "isFullscreen": "BODY"
    },
    "rt": 556,
    "response_type": "key",
    "key_press": "ArrowDown",
    "response": "ArrowDown",
    "avg_frame_time": 16.684322033898304,
    "center_x": 400,
    "center_y": 225,
    "trial_type": "psychophysics",
    "trial_index": 28,
    "plugin_version": "4.0.0",
    "time_elapsed": 78989
  },
  {
    "rt": null,
    "response_type": "key",
    "key_press": null,
    "response": null,
    "avg_frame_time": 16.682758620689757,
    "center_x": 400,
    "center_y": 225,
    "trial_type": "psychophysics",
    "trial_index": 29,
    "plugin_version": "4.0.0",
    "time_elapsed": 79492
  },
  {
    "image1": "https://jatos.mindprobe.eu/publix/57c0fd80-81b3-4ba6-a41e-3f97f3d76ba1/dist/b2b7faaf2a59bb4bdfcb862858551c57.webp",
    "image2": "https://jatos.mindprobe.eu/publix/57c0fd80-81b3-4ba6-a41e-3f97f3d76ba1/dist/a2b978bad27da55c204371f73357f1d7.webp",
    "grid_items": [
      {
        "letter": "",
        "color": "white"
      },
      {
        "letter": "",
        "color": "white"
      },
      {
        "letter": "",
        "color": "white"
      },
      {
        "letter": "",
        "color": "white"
      },
      {
        "letter": "C",
        "color": "black"
      },
      {
        "letter": "S",
        "color": "black"
      },
      {
        "letter": "D",
        "color": "black"
      },
      {
        "letter": "R",
        "color": "black"
      }
    ],
    "target": {
      "letter": "C",
      "color": "black"
    },
    "gaze_direction": "left",
    "grid_position": "right",
    "target_type": "valid",
    "block": "block-1",
    "face": "a",
    "window": {
      "dimensions": [
        1080,
        1920
      ],
      "isFullscreen": "BODY"
    },
    "rt": 1623,
    "response_type": "key",
    "key_press": "ArrowDown",
    "response": "ArrowDown",
    "avg_frame_time": 16.68399999999999,
    "center_x": 400,
    "center_y": 225,
    "trial_type": "psychophysics",
    "trial_index": 30,
    "plugin_version": "4.0.0",
    "time_elapsed": 84517
  },
  {
    "rt": null,
    "response_type": "key",
    "key_press": null,
    "response": null,
    "avg_frame_time": 16.682758620689253,
    "center_x": 400,
    "center_y": 225,
    "trial_type": "psychophysics",
    "trial_index": 31,
    "plugin_version": "4.0.0",
    "time_elapsed": 85018
  },
  {
    "image1": "https://jatos.mindprobe.eu/publix/57c0fd80-81b3-4ba6-a41e-3f97f3d76ba1/dist/36ce3cf01c34ab194e87cdb81ee9890f.webp",
    "image2": "https://jatos.mindprobe.eu/publix/57c0fd80-81b3-4ba6-a41e-3f97f3d76ba1/dist/7abc9556bd3afc91e874c19e0dfb4358.webp",
    "grid_items": [
      {
        "letter": "B",
        "color": "black"
      },
      {
        "letter": "L",
        "color": "black"
      },
      {
        "letter": "F",
        "color": "black"
      },
      {
        "letter": "D",
        "color": "black"
      },
      {
        "letter": "",
        "color": "white"
      },
      {
        "letter": "",
        "color": "white"
      },
      {
        "letter": "",
        "color": "white"
      },
      {
        "letter": "",
        "color": "white"
      }
    ],
    "target": {
      "letter": "D",
      "color": "black"
    },
    "gaze_direction": "right",
    "grid_position": "left",
    "target_type": "valid",
    "block": "block-1",
    "face": "c",
    "window": {
      "dimensions": [
        1080,
        1920
      ],
      "isFullscreen": "BODY"
    },
    "rt": 608,
    "response_type": "key",
    "key_press": "ArrowUp",
    "response": "ArrowUp",
    "avg_frame_time": 16.683682008368176,
    "center_x": 400,
    "center_y": 225,
    "trial_type": "psychophysics",
    "trial_index": 32,
    "plugin_version": "4.0.0",
    "time_elapsed": 89029
  },
  {
    "rt": null,
    "response_type": "key",
    "key_press": null,
    "response": null,
    "avg_frame_time": 16.686206896552026,
    "center_x": 400,
    "center_y": 225,
    "trial_type": "psychophysics",
    "trial_index": 33,
    "plugin_version": "4.0.0",
    "time_elapsed": 89531
  },
  {
    "image1": "https://jatos.mindprobe.eu/publix/57c0fd80-81b3-4ba6-a41e-3f97f3d76ba1/dist/b2b7faaf2a59bb4bdfcb862858551c57.webp",
    "image2": "https://jatos.mindprobe.eu/publix/57c0fd80-81b3-4ba6-a41e-3f97f3d76ba1/dist/a2b978bad27da55c204371f73357f1d7.webp",
    "grid_items": [
      {
        "letter": "C",
        "color": "black"
      },
      {
        "letter": "L",
        "color": "black"
      },
      {
        "letter": "S",
        "color": "black"
      },
      {
        "letter": "H",
        "color": "black"
      },
      {
        "letter": "",
        "color": "white"
      },
      {
        "letter": "",
        "color": "white"
      },
      {
        "letter": "",
        "color": "white"
      },
      {
        "letter": "",
        "color": "white"
      }
    ],
    "target": {
      "letter": "L",
      "color": "black"
    },
    "gaze_direction": "left",
    "grid_position": "left",
    "target_type": "valid",
    "block": "block-1",
    "face": "a",
    "window": {
      "dimensions": [
        1080,
        1920
      ],
      "isFullscreen": "BODY"
    },
    "rt": 623,
    "response_type": "key",
    "key_press": "ArrowDown",
    "response": "ArrowDown",
    "avg_frame_time": 16.684166666666716,
    "center_x": 400,
    "center_y": 225,
    "trial_type": "psychophysics",
    "trial_index": 34,
    "plugin_version": "4.0.0",
    "time_elapsed": 93557
  },
  {
    "rt": null,
    "response_type": "key",
    "key_press": null,
    "response": null,
    "avg_frame_time": 16.682758620689757,
    "center_x": 400,
    "center_y": 225,
    "trial_type": "psychophysics",
    "trial_index": 35,
    "plugin_version": "4.0.0",
    "time_elapsed": 94058
  },
  {
    "image1": "https://jatos.mindprobe.eu/publix/57c0fd80-81b3-4ba6-a41e-3f97f3d76ba1/dist/b2b7faaf2a59bb4bdfcb862858551c57.webp",
    "image2": "https://jatos.mindprobe.eu/publix/57c0fd80-81b3-4ba6-a41e-3f97f3d76ba1/dist/afa6e6b610b3cab6c6b449a4e2dd4d02.webp",
    "grid_items": [
      {
        "letter": "S",
        "color": "black"
      },
      {
        "letter": "C",
        "color": "black"
      },
      {
        "letter": "L",
        "color": "black"
      },
      {
        "letter": "T",
        "color": "black"
      },
      {
        "letter": "",
        "color": "white"
      },
      {
        "letter": "",
        "color": "white"
      },
      {
        "letter": "",
        "color": "white"
      },
      {
        "letter": "",
        "color": "white"
      }
    ],
    "target": {
      "letter": "L",
      "color": "black"
    },
    "gaze_direction": "right",
    "grid_position": "left",
    "target_type": "valid",
    "block": "block-1",
    "face": "a",
    "window": {
      "dimensions": [
        1080,
        1920
      ],
      "isFullscreen": "BODY"
    },
    "rt": 655,
    "response_type": "key",
    "key_press": "ArrowUp",
    "response": "ArrowUp",
    "avg_frame_time": 16.68388429752066,
    "center_x": 400,
    "center_y": 225,
    "trial_type": "psychophysics",
    "trial_index": 36,
    "plugin_version": "4.0.0",
    "time_elapsed": 98117
  },
  {
    "rt": null,
    "response_type": "key",
    "key_press": null,
    "response": null,
    "avg_frame_time": 16.68666666666686,
    "center_x": 400,
    "center_y": 225,
    "trial_type": "psychophysics",
    "trial_index": 37,
    "plugin_version": "4.0.0",
    "time_elapsed": 98618
  },
  {
    "image1": "https://jatos.mindprobe.eu/publix/57c0fd80-81b3-4ba6-a41e-3f97f3d76ba1/dist/d429c5287be0e7ceba842a59a42841aa.webp",
    "image2": "https://jatos.mindprobe.eu/publix/57c0fd80-81b3-4ba6-a41e-3f97f3d76ba1/dist/7c19086664cedcdfc2bed264c3b04bfa.webp",
    "grid_items": [
      {
        "letter": "R",
        "color": "black"
      },
      {
        "letter": "B",
        "color": "black"
      },
      {
        "letter": "P",
        "color": "black"
      },
      {
        "letter": "T",
        "color": "black"
      },
      {
        "letter": "",
        "color": "white"
      },
      {
        "letter": "",
        "color": "white"
      },
      {
        "letter": "",
        "color": "white"
      },
      {
        "letter": "",
        "color": "white"
      }
    ],
    "target": {
      "letter": "R",
      "color": "black"
    },
    "gaze_direction": "left",
    "grid_position": "left",
    "target_type": "valid",
    "block": "block-1",
    "face": "f",
    "window": {
      "dimensions": [
        1080,
        1920
      ],
      "isFullscreen": "BODY"
    },
    "rt": 422,
    "response_type": "key",
    "key_press": "ArrowUp",
    "response": "ArrowUp",
    "avg_frame_time": 16.68421052631579,
    "center_x": 400,
    "center_y": 225,
    "trial_type": "psychophysics",
    "trial_index": 38,
    "plugin_version": "4.0.0",
    "time_elapsed": 102445
  },
  {
    "rt": null,
    "response_type": "key",
    "key_press": null,
    "response": null,
    "avg_frame_time": 16.686206896551525,
    "center_x": 400,
    "center_y": 225,
    "trial_type": "psychophysics",
    "trial_index": 39,
    "plugin_version": "4.0.0",
    "time_elapsed": 102946
  },
  {
    "image1": "https://jatos.mindprobe.eu/publix/57c0fd80-81b3-4ba6-a41e-3f97f3d76ba1/dist/0738b36f5c5284a1fbe6de5047928226.webp",
    "image2": "https://jatos.mindprobe.eu/publix/57c0fd80-81b3-4ba6-a41e-3f97f3d76ba1/dist/48e5157934b56d46aee0926365abe09d.webp",
    "grid_items": [
      {
        "letter": "N",
        "color": "black"
      },
      {
        "letter": "K",
        "color": "black"
      },
      {
        "letter": "P",
        "color": "black"
      },
      {
        "letter": "G",
        "color": "black"
      },
      {
        "letter": "",
        "color": "white"
      },
      {
        "letter": "",
        "color": "white"
      },
      {
        "letter": "",
        "color": "white"
      },
      {
        "letter": "",
        "color": "white"
      }
    ],
    "target": {
      "letter": "G",
      "color": "black"
    },
    "gaze_direction": "right",
    "grid_position": "left",
    "target_type": "valid",
    "block": "block-1",
    "face": "d",
    "window": {
      "dimensions": [
        1080,
        1920
      ],
      "isFullscreen": "BODY"
    },
    "rt": 797,
    "response_type": "key",
    "key_press": "ArrowUp",
    "response": "ArrowUp",
    "avg_frame_time": 16.68366533864544,
    "center_x": 400,
    "center_y": 225,
    "trial_type": "psychophysics",
    "trial_index": 40,
    "plugin_version": "4.0.0",
    "time_elapsed": 107149
  },
  {
    "rt": null,
    "response_type": "key",
    "key_press": null,
    "response": null,
    "avg_frame_time": 16.682758620689757,
    "center_x": 400,
    "center_y": 225,
    "trial_type": "psychophysics",
    "trial_index": 41,
    "plugin_version": "4.0.0",
    "time_elapsed": 107650
  },
  {
    "image1": "https://jatos.mindprobe.eu/publix/57c0fd80-81b3-4ba6-a41e-3f97f3d76ba1/dist/0738b36f5c5284a1fbe6de5047928226.webp",
    "image2": "https://jatos.mindprobe.eu/publix/57c0fd80-81b3-4ba6-a41e-3f97f3d76ba1/dist/48e5157934b56d46aee0926365abe09d.webp",
    "grid_items": [
      {
        "letter": "",
        "color": "white"
      },
      {
        "letter": "",
        "color": "white"
      },
      {
        "letter": "",
        "color": "white"
      },
      {
        "letter": "",
        "color": "white"
      },
      {
        "letter": "T",
        "color": "black"
      },
      {
        "letter": "K",
        "color": "black"
      },
      {
        "letter": "M",
        "color": "black"
      },
      {
        "letter": "P",
        "color": "black"
      }
    ],
    "target": {
      "letter": "T",
      "color": "black"
    },
    "gaze_direction": "right",
    "grid_position": "right",
    "target_type": "valid",
    "block": "block-1",
    "face": "d",
    "window": {
      "dimensions": [
        1080,
        1920
      ],
      "isFullscreen": "BODY"
    },
    "rt": 981,
    "response_type": "key",
    "key_press": "ArrowUp",
    "response": "ArrowUp",
    "avg_frame_time": 16.68435114503818,
    "center_x": 400,
    "center_y": 225,
    "trial_type": "psychophysics",
    "trial_index": 42,
    "plugin_version": "4.0.0",
    "time_elapsed": 112037
  },
  {
    "rt": null,
    "response_type": "key",
    "key_press": null,
    "response": null,
    "avg_frame_time": 16.682758620689757,
    "center_x": 400,
    "center_y": 225,
    "trial_type": "psychophysics",
    "trial_index": 43,
    "plugin_version": "4.0.0",
    "time_elapsed": 112539
  },
  {
    "image1": "https://jatos.mindprobe.eu/publix/57c0fd80-81b3-4ba6-a41e-3f97f3d76ba1/dist/36ce3cf01c34ab194e87cdb81ee9890f.webp",
    "image2": "https://jatos.mindprobe.eu/publix/57c0fd80-81b3-4ba6-a41e-3f97f3d76ba1/dist/7abc9556bd3afc91e874c19e0dfb4358.webp",
    "grid_items": [
      {
        "letter": "",
        "color": "white"
      },
      {
        "letter": "",
        "color": "white"
      },
      {
        "letter": "",
        "color": "white"
      },
      {
        "letter": "",
        "color": "white"
      },
      {
        "letter": "B",
        "color": "black"
      },
      {
        "letter": "N",
        "color": "black"
      },
      {
        "letter": "C",
        "color": "black"
      },
      {
        "letter": "R",
        "color": "black"
      }
    ],
    "target": {
      "letter": "C",
      "color": "black"
    },
    "gaze_direction": "right",
    "grid_position": "right",
    "target_type": "valid",
    "block": "block-1",
    "face": "c",
    "window": {
      "dimensions": [
        1080,
        1920
      ],
      "isFullscreen": "BODY"
    },
    "rt": 1109,
    "response_type": "key",
    "key_press": "ArrowUp",
    "response": "ArrowUp",
    "avg_frame_time": 16.683643122676614,
    "center_x": 400,
    "center_y": 225,
    "trial_type": "psychophysics",
    "trial_index": 44,
    "plugin_version": "4.0.0",
    "time_elapsed": 117053
  },
  {
    "rt": null,
    "response_type": "key",
    "key_press": null,
    "response": null,
    "avg_frame_time": 16.686666666666376,
    "center_x": 400,
    "center_y": 225,
    "trial_type": "psychophysics",
    "trial_index": 45,
    "plugin_version": "4.0.0",
    "time_elapsed": 117555
  },
  {
    "image1": "https://jatos.mindprobe.eu/publix/57c0fd80-81b3-4ba6-a41e-3f97f3d76ba1/dist/b2b7faaf2a59bb4bdfcb862858551c57.webp",
    "image2": "https://jatos.mindprobe.eu/publix/57c0fd80-81b3-4ba6-a41e-3f97f3d76ba1/dist/afa6e6b610b3cab6c6b449a4e2dd4d02.webp",
    "grid_items": [
      {
        "letter": "B",
        "color": "black"
      },
      {
        "letter": "R",
        "color": "black"
      },
      {
        "letter": "S",
        "color": "black"
      },
      {
        "letter": "M",
        "color": "black"
      },
      {
        "letter": "",
        "color": "white"
      },
      {
        "letter": "",
        "color": "white"
      },
      {
        "letter": "",
        "color": "white"
      },
      {
        "letter": "",
        "color": "white"
      }
    ],
    "target": {
      "letter": "P",
      "color": "black"
    },
    "gaze_direction": "right",
    "grid_position": "left",
    "target_type": "invalid",
    "block": "block-1",
    "face": "a",
    "window": {
      "dimensions": [
        1080,
        1920
      ],
      "isFullscreen": "BODY"
    },
    "rt": 917,
    "response_type": "key",
    "key_press": "ArrowDown",
    "response": "ArrowDown",
    "avg_frame_time": 16.683720930232536,
    "center_x": 400,
    "center_y": 225,
    "trial_type": "psychophysics",
    "trial_index": 46,
    "plugin_version": "4.0.0",
    "time_elapsed": 121877
  },
  {
    "rt": null,
    "response_type": "key",
    "key_press": null,
    "response": null,
    "avg_frame_time": 16.686206896552026,
    "center_x": 400,
    "center_y": 225,
    "trial_type": "psychophysics",
    "trial_index": 47,
    "plugin_version": "4.0.0",
    "time_elapsed": 122380
  },
  {
    "image1": "https://jatos.mindprobe.eu/publix/57c0fd80-81b3-4ba6-a41e-3f97f3d76ba1/dist/36ce3cf01c34ab194e87cdb81ee9890f.webp",
    "image2": "https://jatos.mindprobe.eu/publix/57c0fd80-81b3-4ba6-a41e-3f97f3d76ba1/dist/6ef25f867bb912257ed8a75458a113f3.webp",
    "grid_items": [
      {
        "letter": "C",
        "color": "black"
      },
      {
        "letter": "P",
        "color": "black"
      },
      {
        "letter": "L",
        "color": "black"
      },
      {
        "letter": "M",
        "color": "black"
      },
      {
        "letter": "",
        "color": "white"
      },
      {
        "letter": "",
        "color": "white"
      },
      {
        "letter": "",
        "color": "white"
      },
      {
        "letter": "",
        "color": "white"
      }
    ],
    "target": {
      "letter": "P",
      "color": "black"
    },
    "gaze_direction": "left",
    "grid_position": "left",
    "target_type": "valid",
    "block": "block-1",
    "face": "c",
    "window": {
      "dimensions": [
        1080,
        1920
      ],
      "isFullscreen": "BODY"
    },
    "rt": 811,
    "response_type": "key",
    "key_press": "ArrowDown",
    "response": "ArrowDown",
    "avg_frame_time": 16.68406374501991,
    "center_x": 400,
    "center_y": 225,
    "trial_type": "psychophysics",
    "trial_index": 48,
    "plugin_version": "4.0.0",
    "time_elapsed": 126597
  },
  {
    "rt": null,
    "response_type": "key",
    "key_press": null,
    "response": null,
    "avg_frame_time": 16.68666666666686,
    "center_x": 400,
    "center_y": 225,
    "trial_type": "psychophysics",
    "trial_index": 49,
    "plugin_version": "4.0.0",
    "time_elapsed": 127098
  },
  {
    "image1": "https://jatos.mindprobe.eu/publix/57c0fd80-81b3-4ba6-a41e-3f97f3d76ba1/dist/d429c5287be0e7ceba842a59a42841aa.webp",
    "image2": "https://jatos.mindprobe.eu/publix/57c0fd80-81b3-4ba6-a41e-3f97f3d76ba1/dist/7c19086664cedcdfc2bed264c3b04bfa.webp",
    "grid_items": [
      {
        "letter": "",
        "color": "white"
      },
      {
        "letter": "",
        "color": "white"
      },
      {
        "letter": "",
        "color": "white"
      },
      {
        "letter": "",
        "color": "white"
      },
      {
        "letter": "T",
        "color": "black"
      },
      {
        "letter": "F",
        "color": "black"
      },
      {
        "letter": "C",
        "color": "black"
      },
      {
        "letter": "K",
        "color": "black"
      }
    ],
    "target": {
      "letter": "T",
      "color": "black"
    },
    "gaze_direction": "left",
    "grid_position": "right",
    "target_type": "valid",
    "block": "block-1",
    "face": "f",
    "window": {
      "dimensions": [
        1080,
        1920
      ],
      "isFullscreen": "BODY"
    },
    "rt": 940,
    "response_type": "key",
    "key_press": "ArrowUp",
    "response": "ArrowUp",
    "avg_frame_time": 16.684169884169872,
    "center_x": 400,
    "center_y": 225,
    "trial_type": "psychophysics",
    "trial_index": 50,
    "plugin_version": "4.0.0",
    "time_elapsed": 131445
  },
  {
    "rt": null,
    "response_type": "key",
    "key_press": null,
    "response": null,
    "avg_frame_time": 16.682758620689253,
    "center_x": 400,
    "center_y": 225,
    "trial_type": "psychophysics",
    "trial_index": 51,
    "plugin_version": "4.0.0",
    "time_elapsed": 131948
  },
  {
    "image1": "https://jatos.mindprobe.eu/publix/57c0fd80-81b3-4ba6-a41e-3f97f3d76ba1/dist/40dece98c751976c5ae971fb799b576a.webp",
    "image2": "https://jatos.mindprobe.eu/publix/57c0fd80-81b3-4ba6-a41e-3f97f3d76ba1/dist/539bb0274850bc5c179b9239bd4821e4.webp",
    "grid_items": [
      {
        "letter": "K",
        "color": "black"
      },
      {
        "letter": "P",
        "color": "black"
      },
      {
        "letter": "B",
        "color": "black"
      },
      {
        "letter": "L",
        "color": "black"
      },
      {
        "letter": "",
        "color": "white"
      },
      {
        "letter": "",
        "color": "white"
      },
      {
        "letter": "",
        "color": "white"
      },
      {
        "letter": "",
        "color": "white"
      }
    ],
    "target": {
      "letter": "P",
      "color": "black"
    },
    "gaze_direction": "left",
    "grid_position": "left",
    "target_type": "valid",
    "block": "block-1",
    "face": "b",
    "window": {
      "dimensions": [
        1080,
        1920
      ],
      "isFullscreen": "BODY"
    },
    "rt": 1042,
    "response_type": "key",
    "key_press": "ArrowUp",
    "response": "ArrowUp",
    "avg_frame_time": 16.683773584905705,
    "center_x": 400,
    "center_y": 225,
    "trial_type": "psychophysics",
    "trial_index": 52,
    "plugin_version": "4.0.0",
    "time_elapsed": 136397
  },
  {
    "rt": null,
    "response_type": "key",
    "key_press": null,
    "response": null,
    "avg_frame_time": 16.686206896551525,
    "center_x": 400,
    "center_y": 225,
    "trial_type": "psychophysics",
    "trial_index": 53,
    "plugin_version": "4.0.0",
    "time_elapsed": 136900
  },
  {
    "image1": "https://jatos.mindprobe.eu/publix/57c0fd80-81b3-4ba6-a41e-3f97f3d76ba1/dist/1d4fc1100b57f312ef6f7e81e8502a85.webp",
    "image2": "https://jatos.mindprobe.eu/publix/57c0fd80-81b3-4ba6-a41e-3f97f3d76ba1/dist/f133a138299afe57854b3487f1de2960.webp",
    "grid_items": [
      {
        "letter": "",
        "color": "white"
      },
      {
        "letter": "",
        "color": "white"
      },
      {
        "letter": "",
        "color": "white"
      },
      {
        "letter": "",
        "color": "white"
      },
      {
        "letter": "T",
        "color": "black"
      },
      {
        "letter": "N",
        "color": "black"
      },
      {
        "letter": "C",
        "color": "black"
      },
      {
        "letter": "F",
        "color": "black"
      }
    ],
    "target": {
      "letter": "N",
      "color": "black"
    },
    "gaze_direction": "right",
    "grid_position": "right",
    "target_type": "valid",
    "block": "block-1",
    "face": "e",
    "window": {
      "dimensions": [
        1080,
        1920
      ],
      "isFullscreen": "BODY"
    },
    "rt": 690,
    "response_type": "key",
    "key_press": "ArrowUp",
    "response": "ArrowUp",
    "avg_frame_time": 16.683673469387756,
    "center_x": 400,
    "center_y": 225,
    "trial_type": "psychophysics",
    "trial_index": 54,
    "plugin_version": "4.0.0",
    "time_elapsed": 140997
  },
  {
    "rt": null,
    "response_type": "key",
    "key_press": null,
    "response": null,
    "avg_frame_time": 16.686206896551525,
    "center_x": 400,
    "center_y": 225,
    "trial_type": "psychophysics",
    "trial_index": 55,
    "plugin_version": "4.0.0",
    "time_elapsed": 141499
  },
  {
    "image1": "https://jatos.mindprobe.eu/publix/57c0fd80-81b3-4ba6-a41e-3f97f3d76ba1/dist/40dece98c751976c5ae971fb799b576a.webp",
    "image2": "https://jatos.mindprobe.eu/publix/57c0fd80-81b3-4ba6-a41e-3f97f3d76ba1/dist/a0953907ed0c4f557cc32072c240bdb4.webp",
    "grid_items": [
      {
        "letter": "C",
        "color": "black"
      },
      {
        "letter": "S",
        "color": "black"
      },
      {
        "letter": "L",
        "color": "black"
      },
      {
        "letter": "M",
        "color": "black"
      },
      {
        "letter": "",
        "color": "white"
      },
      {
        "letter": "",
        "color": "white"
      },
      {
        "letter": "",
        "color": "white"
      },
      {
        "letter": "",
        "color": "white"
      }
    ],
    "target": {
      "letter": "K",
      "color": "black"
    },
    "gaze_direction": "right",
    "grid_position": "left",
    "target_type": "invalid",
    "block": "block-1",
    "face": "b",
    "window": {
      "dimensions": [
        1080,
        1920
      ],
      "isFullscreen": "BODY"
    },
    "rt": 1090,
    "response_type": "key",
    "key_press": "ArrowDown",
    "response": "ArrowDown",
    "avg_frame_time": 16.683955223880552,
    "center_x": 400,
    "center_y": 225,
    "trial_type": "psychophysics",
    "trial_index": 56,
    "plugin_version": "4.0.0",
    "time_elapsed": 145997
  },
  {
    "rt": null,
    "response_type": "key",
    "key_press": null,
    "response": null,
    "avg_frame_time": 16.682758620689253,
    "center_x": 400,
    "center_y": 225,
    "trial_type": "psychophysics",
    "trial_index": 57,
    "plugin_version": "4.0.0",
    "time_elapsed": 146499
  },
  {
    "image1": "https://jatos.mindprobe.eu/publix/57c0fd80-81b3-4ba6-a41e-3f97f3d76ba1/dist/36ce3cf01c34ab194e87cdb81ee9890f.webp",
    "image2": "https://jatos.mindprobe.eu/publix/57c0fd80-81b3-4ba6-a41e-3f97f3d76ba1/dist/7abc9556bd3afc91e874c19e0dfb4358.webp",
    "grid_items": [
      {
        "letter": "R",
        "color": "black"
      },
      {
        "letter": "F",
        "color": "black"
      },
      {
        "letter": "K",
        "color": "black"
      },
      {
        "letter": "H",
        "color": "black"
      },
      {
        "letter": "",
        "color": "white"
      },
      {
        "letter": "",
        "color": "white"
      },
      {
        "letter": "",
        "color": "white"
      },
      {
        "letter": "",
        "color": "white"
      }
    ],
    "target": {
      "letter": "N",
      "color": "black"
    },
    "gaze_direction": "right",
    "grid_position": "left",
    "target_type": "invalid",
    "block": "block-1",
    "face": "c",
    "window": {
      "dimensions": [
        1080,
        1920
      ],
      "isFullscreen": "BODY"
    },
    "rt": 578,
    "response_type": "key",
    "key_press": "ArrowDown",
    "response": "ArrowDown",
    "avg_frame_time": 16.683966244725763,
    "center_x": 400,
    "center_y": 225,
    "trial_type": "psychophysics",
    "trial_index": 58,
    "plugin_version": "4.0.0",
    "time_elapsed": 150485
  },
  {
    "rt": null,
    "response_type": "key",
    "key_press": null,
    "response": null,
    "avg_frame_time": 16.686206896551525,
    "center_x": 400,
    "center_y": 225,
    "trial_type": "psychophysics",
    "trial_index": 59,
    "plugin_version": "4.0.0",
    "time_elapsed": 150987
  },
  {
    "image1": "https://jatos.mindprobe.eu/publix/57c0fd80-81b3-4ba6-a41e-3f97f3d76ba1/dist/40dece98c751976c5ae971fb799b576a.webp",
    "image2": "https://jatos.mindprobe.eu/publix/57c0fd80-81b3-4ba6-a41e-3f97f3d76ba1/dist/a0953907ed0c4f557cc32072c240bdb4.webp",
    "grid_items": [
      {
        "letter": "R",
        "color": "black"
      },
      {
        "letter": "D",
        "color": "black"
      },
      {
        "letter": "P",
        "color": "black"
      },
      {
        "letter": "S",
        "color": "black"
      },
      {
        "letter": "",
        "color": "white"
      },
      {
        "letter": "",
        "color": "white"
      },
      {
        "letter": "",
        "color": "white"
      },
      {
        "letter": "",
        "color": "white"
      }
    ],
    "target": {
      "letter": "P",
      "color": "black"
    },
    "gaze_direction": "right",
    "grid_position": "left",
    "target_type": "valid",
    "block": "block-1",
    "face": "b",
    "window": {
      "dimensions": [
        1080,
        1920
      ],
      "isFullscreen": "BODY"
    },
    "rt": 576,
    "response_type": "key",
    "key_press": "ArrowUp",
    "response": "ArrowUp",
    "avg_frame_time": 16.684388185653933,
    "center_x": 400,
    "center_y": 225,
    "trial_type": "psychophysics",
    "trial_index": 60,
    "plugin_version": "4.0.0",
    "time_elapsed": 154973
  },
  {
    "rt": null,
    "response_type": "key",
    "key_press": null,
    "response": null,
    "avg_frame_time": 16.686206896551525,
    "center_x": 400,
    "center_y": 225,
    "trial_type": "psychophysics",
    "trial_index": 61,
    "plugin_version": "4.0.0",
    "time_elapsed": 155475
  },
  {
    "image1": "https://jatos.mindprobe.eu/publix/57c0fd80-81b3-4ba6-a41e-3f97f3d76ba1/dist/40dece98c751976c5ae971fb799b576a.webp",
    "image2": "https://jatos.mindprobe.eu/publix/57c0fd80-81b3-4ba6-a41e-3f97f3d76ba1/dist/a0953907ed0c4f557cc32072c240bdb4.webp",
    "grid_items": [
      {
        "letter": "",
        "color": "white"
      },
      {
        "letter": "",
        "color": "white"
      },
      {
        "letter": "",
        "color": "white"
      },
      {
        "letter": "",
        "color": "white"
      },
      {
        "letter": "G",
        "color": "black"
      },
      {
        "letter": "H",
        "color": "black"
      },
      {
        "letter": "N",
        "color": "black"
      },
      {
        "letter": "P",
        "color": "black"
      }
    ],
    "target": {
      "letter": "M",
      "color": "black"
    },
    "gaze_direction": "right",
    "grid_position": "right",
    "target_type": "invalid",
    "block": "block-1",
    "face": "b",
    "window": {
      "dimensions": [
        1080,
        1920
      ],
      "isFullscreen": "BODY"
    },
    "rt": 1232,
    "response_type": "key",
    "key_press": "ArrowUp",
    "response": "ArrowUp",
    "avg_frame_time": 16.684115523465703,
    "center_x": 400,
    "center_y": 225,
    "trial_type": "psychophysics",
    "trial_index": 62,
    "plugin_version": "4.0.0",
    "time_elapsed": 160118
  },
  {
    "rt": null,
    "response_type": "key",
    "key_press": null,
    "response": null,
    "avg_frame_time": 16.682758620690258,
    "center_x": 400,
    "center_y": 225,
    "trial_type": "psychophysics",
    "trial_index": 63,
    "plugin_version": "4.0.0",
    "time_elapsed": 160620
  },
  {
    "image1": "https://jatos.mindprobe.eu/publix/57c0fd80-81b3-4ba6-a41e-3f97f3d76ba1/dist/40dece98c751976c5ae971fb799b576a.webp",
    "image2": "https://jatos.mindprobe.eu/publix/57c0fd80-81b3-4ba6-a41e-3f97f3d76ba1/dist/539bb0274850bc5c179b9239bd4821e4.webp",
    "grid_items": [
      {
        "letter": "M",
        "color": "black"
      },
      {
        "letter": "T",
        "color": "black"
      },
      {
        "letter": "S",
        "color": "black"
      },
      {
        "letter": "P",
        "color": "black"
      },
      {
        "letter": "",
        "color": "white"
      },
      {
        "letter": "",
        "color": "white"
      },
      {
        "letter": "",
        "color": "white"
      },
      {
        "letter": "",
        "color": "white"
      }
    ],
    "target": {
      "letter": "F",
      "color": "black"
    },
    "gaze_direction": "left",
    "grid_position": "left",
    "target_type": "invalid",
    "block": "block-1",
    "face": "b",
    "window": {
      "dimensions": [
        1080,
        1920
      ],
      "isFullscreen": "BODY"
    },
    "rt": 904,
    "response_type": "key",
    "key_press": "ArrowDown",
    "response": "ArrowDown",
    "avg_frame_time": 16.684046692607073,
    "center_x": 400,
    "center_y": 225,
    "trial_type": "psychophysics",
    "trial_index": 64,
    "plugin_version": "4.0.0",
    "time_elapsed": 164933
  },
  {
    "rt": null,
    "response_type": "key",
    "key_press": null,
    "response": null,
    "avg_frame_time": 16.682758620690258,
    "center_x": 400,
    "center_y": 225,
    "trial_type": "psychophysics",
    "trial_index": 65,
    "plugin_version": "4.0.0",
    "time_elapsed": 165435
  },
  {
    "image1": "https://jatos.mindprobe.eu/publix/57c0fd80-81b3-4ba6-a41e-3f97f3d76ba1/dist/36ce3cf01c34ab194e87cdb81ee9890f.webp",
    "image2": "https://jatos.mindprobe.eu/publix/57c0fd80-81b3-4ba6-a41e-3f97f3d76ba1/dist/6ef25f867bb912257ed8a75458a113f3.webp",
    "grid_items": [
      {
        "letter": "B",
        "color": "black"
      },
      {
        "letter": "D",
        "color": "black"
      },
      {
        "letter": "H",
        "color": "black"
      },
      {
        "letter": "G",
        "color": "black"
      },
      {
        "letter": "",
        "color": "white"
      },
      {
        "letter": "",
        "color": "white"
      },
      {
        "letter": "",
        "color": "white"
      },
      {
        "letter": "",
        "color": "white"
      }
    ],
    "target": {
      "letter": "T",
      "color": "black"
    },
    "gaze_direction": "left",
    "grid_position": "left",
    "target_type": "invalid",
    "block": "block-1",
    "face": "c",
    "window": {
      "dimensions": [
        1080,
        1920
      ],
      "isFullscreen": "BODY"
    },
    "rt": 776,
    "response_type": "key",
    "key_press": "ArrowDown",
    "response": "ArrowDown",
    "avg_frame_time": 16.68393574297184,
    "center_x": 400,
    "center_y": 225,
    "trial_type": "psychophysics",
    "trial_index": 66,
    "plugin_version": "4.0.0",
    "time_elapsed": 169621
  },
  {
    "rt": null,
    "response_type": "key",
    "key_press": null,
    "response": null,
    "avg_frame_time": 16.682758620689253,
    "center_x": 400,
    "center_y": 225,
    "trial_type": "psychophysics",
    "trial_index": 67,
    "plugin_version": "4.0.0",
    "time_elapsed": 170123
  },
  {
    "image1": "https://jatos.mindprobe.eu/publix/57c0fd80-81b3-4ba6-a41e-3f97f3d76ba1/dist/d429c5287be0e7ceba842a59a42841aa.webp",
    "image2": "https://jatos.mindprobe.eu/publix/57c0fd80-81b3-4ba6-a41e-3f97f3d76ba1/dist/9e284198aaef8c500a1145e962e8a4d0.webp",
    "grid_items": [
      {
        "letter": "P",
        "color": "black"
      },
      {
        "letter": "L",
        "color": "black"
      },
      {
        "letter": "K",
        "color": "black"
      },
      {
        "letter": "F",
        "color": "black"
      },
      {
        "letter": "",
        "color": "white"
      },
      {
        "letter": "",
        "color": "white"
      },
      {
        "letter": "",
        "color": "white"
      },
      {
        "letter": "",
        "color": "white"
      }
    ],
    "target": {
      "letter": "H",
      "color": "black"
    },
    "gaze_direction": "right",
    "grid_position": "left",
    "target_type": "invalid",
    "block": "block-1",
    "face": "f",
    "window": {
      "dimensions": [
        1080,
        1920
      ],
      "isFullscreen": "BODY"
    },
    "rt": 640,
    "response_type": "key",
    "key_press": "ArrowUp",
    "response": "ArrowUp",
    "avg_frame_time": 16.684232365145323,
    "center_x": 400,
    "center_y": 225,
    "trial_type": "psychophysics",
    "trial_index": 68,
    "plugin_version": "4.0.0",
    "time_elapsed": 174173
  },
  {
    "rt": null,
    "response_type": "key",
    "key_press": null,
    "response": null,
    "avg_frame_time": 16.682758620690258,
    "center_x": 400,
    "center_y": 225,
    "trial_type": "psychophysics",
    "trial_index": 69,
    "plugin_version": "4.0.0",
    "time_elapsed": 174676
  },
  {
    "image1": "https://jatos.mindprobe.eu/publix/57c0fd80-81b3-4ba6-a41e-3f97f3d76ba1/dist/d429c5287be0e7ceba842a59a42841aa.webp",
    "image2": "https://jatos.mindprobe.eu/publix/57c0fd80-81b3-4ba6-a41e-3f97f3d76ba1/dist/9e284198aaef8c500a1145e962e8a4d0.webp",
    "grid_items": [
      {
        "letter": "S",
        "color": "black"
      },
      {
        "letter": "L",
        "color": "black"
      },
      {
        "letter": "N",
        "color": "black"
      },
      {
        "letter": "G",
        "color": "black"
      },
      {
        "letter": "",
        "color": "white"
      },
      {
        "letter": "",
        "color": "white"
      },
      {
        "letter": "",
        "color": "white"
      },
      {
        "letter": "",
        "color": "white"
      }
    ],
    "target": {
      "letter": "L",
      "color": "black"
    },
    "gaze_direction": "right",
    "grid_position": "left",
    "target_type": "valid",
    "block": "block-1",
    "face": "f",
    "window": {
      "dimensions": [
        1080,
        1920
      ],
      "isFullscreen": "BODY"
    },
    "rt": 701,
    "response_type": "key",
    "key_press": "ArrowUp",
    "response": "ArrowUp",
    "avg_frame_time": 16.684081632653086,
    "center_x": 400,
    "center_y": 225,
    "trial_type": "psychophysics",
    "trial_index": 70,
    "plugin_version": "4.0.0",
    "time_elapsed": 178789
  },
  {
    "rt": null,
    "response_type": "key",
    "key_press": null,
    "response": null,
    "avg_frame_time": 16.682758620690258,
    "center_x": 400,
    "center_y": 225,
    "trial_type": "psychophysics",
    "trial_index": 71,
    "plugin_version": "4.0.0",
    "time_elapsed": 179291
  },
  {
    "image1": "https://jatos.mindprobe.eu/publix/57c0fd80-81b3-4ba6-a41e-3f97f3d76ba1/dist/0738b36f5c5284a1fbe6de5047928226.webp",
    "image2": "https://jatos.mindprobe.eu/publix/57c0fd80-81b3-4ba6-a41e-3f97f3d76ba1/dist/48e5157934b56d46aee0926365abe09d.webp",
    "grid_items": [
      {
        "letter": "",
        "color": "white"
      },
      {
        "letter": "",
        "color": "white"
      },
      {
        "letter": "",
        "color": "white"
      },
      {
        "letter": "",
        "color": "white"
      },
      {
        "letter": "R",
        "color": "black"
      },
      {
        "letter": "M",
        "color": "black"
      },
      {
        "letter": "C",
        "color": "black"
      },
      {
        "letter": "D",
        "color": "black"
      }
    ],
    "target": {
      "letter": "P",
      "color": "black"
    },
    "gaze_direction": "right",
    "grid_position": "right",
    "target_type": "invalid",
    "block": "block-1",
    "face": "d",
    "window": {
      "dimensions": [
        1080,
        1920
      ],
      "isFullscreen": "BODY"
    },
    "rt": 606,
    "response_type": "key",
    "key_press": "ArrowUp",
    "response": "ArrowUp",
    "avg_frame_time": 16.683682008368176,
    "center_x": 400,
    "center_y": 225,
    "trial_type": "psychophysics",
    "trial_index": 72,
    "plugin_version": "4.0.0",
    "time_elapsed": 183309
  },
  {
    "rt": null,
    "response_type": "key",
    "key_press": null,
    "response": null,
    "avg_frame_time": 16.686206896551525,
    "center_x": 400,
    "center_y": 225,
    "trial_type": "psychophysics",
    "trial_index": 73,
    "plugin_version": "4.0.0",
    "time_elapsed": 183811
  },
  {
    "image1": "https://jatos.mindprobe.eu/publix/57c0fd80-81b3-4ba6-a41e-3f97f3d76ba1/dist/40dece98c751976c5ae971fb799b576a.webp",
    "image2": "https://jatos.mindprobe.eu/publix/57c0fd80-81b3-4ba6-a41e-3f97f3d76ba1/dist/539bb0274850bc5c179b9239bd4821e4.webp",
    "grid_items": [
      {
        "letter": "",
        "color": "white"
      },
      {
        "letter": "",
        "color": "white"
      },
      {
        "letter": "",
        "color": "white"
      },
      {
        "letter": "",
        "color": "white"
      },
      {
        "letter": "C",
        "color": "black"
      },
      {
        "letter": "N",
        "color": "black"
      },
      {
        "letter": "S",
        "color": "black"
      },
      {
        "letter": "M",
        "color": "black"
      }
    ],
    "target": {
      "letter": "R",
      "color": "black"
    },
    "gaze_direction": "left",
    "grid_position": "right",
    "target_type": "invalid",
    "block": "block-1",
    "face": "b",
    "window": {
      "dimensions": [
        1080,
        1920
      ],
      "isFullscreen": "BODY"
    },
    "rt": 591,
    "response_type": "key",
    "key_press": "ArrowUp",
    "response": "ArrowUp",
    "avg_frame_time": 16.68403361344545,
    "center_x": 400,
    "center_y": 225,
    "trial_type": "psychophysics",
    "trial_index": 74,
    "plugin_version": "4.0.0",
    "time_elapsed": 187814
  },
  {
    "rt": null,
    "response_type": "key",
    "key_press": null,
    "response": null,
    "avg_frame_time": 16.686206896552527,
    "center_x": 400,
    "center_y": 225,
    "trial_type": "psychophysics",
    "trial_index": 75,
    "plugin_version": "4.0.0",
    "time_elapsed": 188315
  },
  {
    "image1": "https://jatos.mindprobe.eu/publix/57c0fd80-81b3-4ba6-a41e-3f97f3d76ba1/dist/d429c5287be0e7ceba842a59a42841aa.webp",
    "image2": "https://jatos.mindprobe.eu/publix/57c0fd80-81b3-4ba6-a41e-3f97f3d76ba1/dist/7c19086664cedcdfc2bed264c3b04bfa.webp",
    "grid_items": [
      {
        "letter": "S",
        "color": "black"
      },
      {
        "letter": "N",
        "color": "black"
      },
      {
        "letter": "C",
        "color": "black"
      },
      {
        "letter": "P",
        "color": "black"
      },
      {
        "letter": "",
        "color": "white"
      },
      {
        "letter": "",
        "color": "white"
      },
      {
        "letter": "",
        "color": "white"
      },
      {
        "letter": "",
        "color": "white"
      }
    ],
    "target": {
      "letter": "B",
      "color": "black"
    },
    "gaze_direction": "left",
    "grid_position": "left",
    "target_type": "invalid",
    "block": "block-1",
    "face": "f",
    "window": {
      "dimensions": [
        1080,
        1920
      ],
      "isFullscreen": "BODY"
    },
    "rt": 246,
    "response_type": "key",
    "key_press": "ArrowDown",
    "response": "ArrowDown",
    "avg_frame_time": 16.683944954128467,
    "center_x": 400,
    "center_y": 225,
    "trial_type": "psychophysics",
    "trial_index": 76,
    "plugin_version": "4.0.0",
    "time_elapsed": 191973
  },
  {
    "rt": null,
    "response_type": "key",
    "key_press": null,
    "response": null,
    "avg_frame_time": 16.682758620689253,
    "center_x": 400,
    "center_y": 225,
    "trial_type": "psychophysics",
    "trial_index": 77,
    "plugin_version": "4.0.0",
    "time_elapsed": 192475
  },
  {
    "image1": "https://jatos.mindprobe.eu/publix/57c0fd80-81b3-4ba6-a41e-3f97f3d76ba1/dist/1d4fc1100b57f312ef6f7e81e8502a85.webp",
    "image2": "https://jatos.mindprobe.eu/publix/57c0fd80-81b3-4ba6-a41e-3f97f3d76ba1/dist/7aa52bcb2291ad2c1eab0a1c309e9ebe.webp",
    "grid_items": [
      {
        "letter": "H",
        "color": "black"
      },
      {
        "letter": "M",
        "color": "black"
      },
      {
        "letter": "B",
        "color": "black"
      },
      {
        "letter": "L",
        "color": "black"
      },
      {
        "letter": "",
        "color": "white"
      },
      {
        "letter": "",
        "color": "white"
      },
      {
        "letter": "",
        "color": "white"
      },
      {
        "letter": "",
        "color": "white"
      }
    ],
    "target": {
      "letter": "R",
      "color": "black"
    },
    "gaze_direction": "left",
    "grid_position": "left",
    "target_type": "invalid",
    "block": "block-1",
    "face": "e",
    "window": {
      "dimensions": [
        1080,
        1920
      ],
      "isFullscreen": "BODY"
    },
    "rt": 717,
    "response_type": "key",
    "key_press": "ArrowUp",
    "response": "ArrowUp",
    "avg_frame_time": 16.68373983739842,
    "center_x": 400,
    "center_y": 225,
    "trial_type": "psychophysics",
    "trial_index": 78,
    "plugin_version": "4.0.0",
    "time_elapsed": 196605
  },
  {
    "rt": null,
    "response_type": "key",
    "key_press": null,
    "response": null,
    "avg_frame_time": 16.686206896551525,
    "center_x": 400,
    "center_y": 225,
    "trial_type": "psychophysics",
    "trial_index": 79,
    "plugin_version": "4.0.0",
    "time_elapsed": 197108
  },
  {
    "image1": "https://jatos.mindprobe.eu/publix/57c0fd80-81b3-4ba6-a41e-3f97f3d76ba1/dist/1d4fc1100b57f312ef6f7e81e8502a85.webp",
    "image2": "https://jatos.mindprobe.eu/publix/57c0fd80-81b3-4ba6-a41e-3f97f3d76ba1/dist/f133a138299afe57854b3487f1de2960.webp",
    "grid_items": [
      {
        "letter": "",
        "color": "white"
      },
      {
        "letter": "",
        "color": "white"
      },
      {
        "letter": "",
        "color": "white"
      },
      {
        "letter": "",
        "color": "white"
      },
      {
        "letter": "H",
        "color": "black"
      },
      {
        "letter": "P",
        "color": "black"
      },
      {
        "letter": "F",
        "color": "black"
      },
      {
        "letter": "D",
        "color": "black"
      }
    ],
    "target": {
      "letter": "L",
      "color": "black"
    },
    "gaze_direction": "right",
    "grid_position": "right",
    "target_type": "invalid",
    "block": "block-1",
    "face": "e",
    "window": {
      "dimensions": [
        1080,
        1920
      ],
      "isFullscreen": "BODY"
    },
    "rt": 925,
    "response_type": "key",
    "key_press": "ArrowDown",
    "response": "ArrowDown",
    "avg_frame_time": 16.683720930232536,
    "center_x": 400,
    "center_y": 225,
    "trial_type": "psychophysics",
    "trial_index": 80,
    "plugin_version": "4.0.0",
    "time_elapsed": 201446
  },
  {
    "rt": null,
    "response_type": "key",
    "key_press": null,
    "response": null,
    "avg_frame_time": 16.679310344826984,
    "center_x": 400,
    "center_y": 225,
    "trial_type": "psychophysics",
    "trial_index": 81,
    "plugin_version": "4.0.0",
    "time_elapsed": 201947
  },
  {
    "image1": "https://jatos.mindprobe.eu/publix/57c0fd80-81b3-4ba6-a41e-3f97f3d76ba1/dist/d429c5287be0e7ceba842a59a42841aa.webp",
    "image2": "https://jatos.mindprobe.eu/publix/57c0fd80-81b3-4ba6-a41e-3f97f3d76ba1/dist/9e284198aaef8c500a1145e962e8a4d0.webp",
    "grid_items": [
      {
        "letter": "",
        "color": "white"
      },
      {
        "letter": "",
        "color": "white"
      },
      {
        "letter": "",
        "color": "white"
      },
      {
        "letter": "",
        "color": "white"
      },
      {
        "letter": "F",
        "color": "black"
      },
      {
        "letter": "H",
        "color": "black"
      },
      {
        "letter": "S",
        "color": "black"
      },
      {
        "letter": "T",
        "color": "black"
      }
    ],
    "target": {
      "letter": "S",
      "color": "black"
    },
    "gaze_direction": "right",
    "grid_position": "right",
    "target_type": "valid",
    "block": "block-1",
    "face": "f",
    "window": {
      "dimensions": [
        1080,
        1920
      ],
      "isFullscreen": "BODY"
    },
    "rt": 859,
    "response_type": "key",
    "key_press": "ArrowUp",
    "response": "ArrowUp",
    "avg_frame_time": 16.68385826771658,
    "center_x": 400,
    "center_y": 225,
    "trial_type": "psychophysics",
    "trial_index": 82,
    "plugin_version": "4.0.0",
    "time_elapsed": 206221
  },
  {
    "rt": null,
    "response_type": "key",
    "key_press": null,
    "response": null,
    "avg_frame_time": 16.682758620690258,
    "center_x": 400,
    "center_y": 225,
    "trial_type": "psychophysics",
    "trial_index": 83,
    "plugin_version": "4.0.0",
    "time_elapsed": 206723
  },
  {
    "image1": "https://jatos.mindprobe.eu/publix/57c0fd80-81b3-4ba6-a41e-3f97f3d76ba1/dist/1d4fc1100b57f312ef6f7e81e8502a85.webp",
    "image2": "https://jatos.mindprobe.eu/publix/57c0fd80-81b3-4ba6-a41e-3f97f3d76ba1/dist/7aa52bcb2291ad2c1eab0a1c309e9ebe.webp",
    "grid_items": [
      {
        "letter": "",
        "color": "white"
      },
      {
        "letter": "",
        "color": "white"
      },
      {
        "letter": "",
        "color": "white"
      },
      {
        "letter": "",
        "color": "white"
      },
      {
        "letter": "M",
        "color": "black"
      },
      {
        "letter": "N",
        "color": "black"
      },
      {
        "letter": "D",
        "color": "black"
      },
      {
        "letter": "K",
        "color": "black"
      }
    ],
    "target": {
      "letter": "C",
      "color": "black"
    },
    "gaze_direction": "left",
    "grid_position": "right",
    "target_type": "invalid",
    "block": "block-1",
    "face": "e",
    "window": {
      "dimensions": [
        1080,
        1920
      ],
      "isFullscreen": "BODY"
    },
    "rt": 988,
    "response_type": "key",
    "key_press": "ArrowDown",
    "response": "ArrowDown",
    "avg_frame_time": 16.6839694656489,
    "center_x": 400,
    "center_y": 225,
    "trial_type": "psychophysics",
    "trial_index": 84,
    "plugin_version": "4.0.0",
    "time_elapsed": 211125
  },
  {
    "rt": null,
    "response_type": "key",
    "key_press": null,
    "response": null,
    "avg_frame_time": 16.686206896552527,
    "center_x": 400,
    "center_y": 225,
    "trial_type": "psychophysics",
    "trial_index": 85,
    "plugin_version": "4.0.0",
    "time_elapsed": 211627
  },
  {
    "image1": "https://jatos.mindprobe.eu/publix/57c0fd80-81b3-4ba6-a41e-3f97f3d76ba1/dist/1d4fc1100b57f312ef6f7e81e8502a85.webp",
    "image2": "https://jatos.mindprobe.eu/publix/57c0fd80-81b3-4ba6-a41e-3f97f3d76ba1/dist/f133a138299afe57854b3487f1de2960.webp",
    "grid_items": [
      {
        "letter": "N",
        "color": "black"
      },
      {
        "letter": "B",
        "color": "black"
      },
      {
        "letter": "H",
        "color": "black"
      },
      {
        "letter": "S",
        "color": "black"
      },
      {
        "letter": "",
        "color": "white"
      },
      {
        "letter": "",
        "color": "white"
      },
      {
        "letter": "",
        "color": "white"
      },
      {
        "letter": "",
        "color": "white"
      }
    ],
    "target": {
      "letter": "B",
      "color": "black"
    },
    "gaze_direction": "right",
    "grid_position": "left",
    "target_type": "valid",
    "block": "block-1",
    "face": "e",
    "window": {
      "dimensions": [
        1080,
        1920
      ],
      "isFullscreen": "BODY"
    },
    "rt": 1295,
    "response_type": "key",
    "key_press": "ArrowDown",
    "response": "ArrowDown",
    "avg_frame_time": 16.684341637010636,
    "center_x": 400,
    "center_y": 225,
    "trial_type": "psychophysics",
    "trial_index": 86,
    "plugin_version": "4.0.0",
    "time_elapsed": 216341
  },
  {
    "rt": null,
    "response_type": "key",
    "key_press": null,
    "response": null,
    "avg_frame_time": 16.682758620690258,
    "center_x": 400,
    "center_y": 225,
    "trial_type": "psychophysics",
    "trial_index": 87,
    "plugin_version": "4.0.0",
    "time_elapsed": 216843
  },
  {
    "image1": "https://jatos.mindprobe.eu/publix/57c0fd80-81b3-4ba6-a41e-3f97f3d76ba1/dist/0738b36f5c5284a1fbe6de5047928226.webp",
    "image2": "https://jatos.mindprobe.eu/publix/57c0fd80-81b3-4ba6-a41e-3f97f3d76ba1/dist/c2c6af7a7e254bf30109d9388b53b5d8.webp",
    "grid_items": [
      {
        "letter": "",
        "color": "white"
      },
      {
        "letter": "",
        "color": "white"
      },
      {
        "letter": "",
        "color": "white"
      },
      {
        "letter": "",
        "color": "white"
      },
      {
        "letter": "P",
        "color": "black"
      },
      {
        "letter": "K",
        "color": "black"
      },
      {
        "letter": "C",
        "color": "black"
      },
      {
        "letter": "H",
        "color": "black"
      }
    ],
    "target": {
      "letter": "D",
      "color": "black"
    },
    "gaze_direction": "left",
    "grid_position": "right",
    "target_type": "invalid",
    "block": "block-1",
    "face": "d",
    "window": {
      "dimensions": [
        1080,
        1920
      ],
      "isFullscreen": "BODY"
    },
    "rt": 682,
    "response_type": "key",
    "key_press": "ArrowDown",
    "response": "ArrowDown",
    "avg_frame_time": 16.68436213991765,
    "center_x": 400,
    "center_y": 225,
    "trial_type": "psychophysics",
    "trial_index": 88,
    "plugin_version": "4.0.0",
    "time_elapsed": 220941
  },
  {
    "rt": null,
    "response_type": "key",
    "key_press": null,
    "response": null,
    "avg_frame_time": 16.68666666666686,
    "center_x": 400,
    "center_y": 225,
    "trial_type": "psychophysics",
    "trial_index": 89,
    "plugin_version": "4.0.0",
    "time_elapsed": 221446
  },
  {
    "image1": "https://jatos.mindprobe.eu/publix/57c0fd80-81b3-4ba6-a41e-3f97f3d76ba1/dist/1d4fc1100b57f312ef6f7e81e8502a85.webp",
    "image2": "https://jatos.mindprobe.eu/publix/57c0fd80-81b3-4ba6-a41e-3f97f3d76ba1/dist/f133a138299afe57854b3487f1de2960.webp",
    "grid_items": [
      {
        "letter": "D",
        "color": "black"
      },
      {
        "letter": "M",
        "color": "black"
      },
      {
        "letter": "G",
        "color": "black"
      },
      {
        "letter": "S",
        "color": "black"
      },
      {
        "letter": "",
        "color": "white"
      },
      {
        "letter": "",
        "color": "white"
      },
      {
        "letter": "",
        "color": "white"
      },
      {
        "letter": "",
        "color": "white"
      }
    ],
    "target": {
      "letter": "K",
      "color": "black"
    },
    "gaze_direction": "right",
    "grid_position": "left",
    "target_type": "invalid",
    "block": "block-1",
    "face": "e",
    "window": {
      "dimensions": [
        1080,
        1920
      ],
      "isFullscreen": "BODY"
    },
    "rt": 727,
    "response_type": "key",
    "key_press": "ArrowDown",
    "response": "ArrowDown",
    "avg_frame_time": 16.68373983739842,
    "center_x": 400,
    "center_y": 225,
    "trial_type": "psychophysics",
    "trial_index": 90,
    "plugin_version": "4.0.0",
    "time_elapsed": 225589
  },
  {
    "rt": null,
    "response_type": "key",
    "key_press": null,
    "response": null,
    "avg_frame_time": 16.682758620690258,
    "center_x": 400,
    "center_y": 225,
    "trial_type": "psychophysics",
    "trial_index": 91,
    "plugin_version": "4.0.0",
    "time_elapsed": 226091
  },
  {
    "image1": "https://jatos.mindprobe.eu/publix/57c0fd80-81b3-4ba6-a41e-3f97f3d76ba1/dist/40dece98c751976c5ae971fb799b576a.webp",
    "image2": "https://jatos.mindprobe.eu/publix/57c0fd80-81b3-4ba6-a41e-3f97f3d76ba1/dist/539bb0274850bc5c179b9239bd4821e4.webp",
    "grid_items": [
      {
        "letter": "",
        "color": "white"
      },
      {
        "letter": "",
        "color": "white"
      },
      {
        "letter": "",
        "color": "white"
      },
      {
        "letter": "",
        "color": "white"
      },
      {
        "letter": "F",
        "color": "black"
      },
      {
        "letter": "S",
        "color": "black"
      },
      {
        "letter": "H",
        "color": "black"
      },
      {
        "letter": "G",
        "color": "black"
      }
    ],
    "target": {
      "letter": "G",
      "color": "black"
    },
    "gaze_direction": "left",
    "grid_position": "right",
    "target_type": "valid",
    "block": "block-1",
    "face": "b",
    "window": {
      "dimensions": [
        1080,
        1920
      ],
      "isFullscreen": "BODY"
    },
    "rt": 564,
    "response_type": "key",
    "key_press": "ArrowUp",
    "response": "ArrowUp",
    "avg_frame_time": 16.684322033898304,
    "center_x": 400,
    "center_y": 225,
    "trial_type": "psychophysics",
    "trial_index": 92,
    "plugin_version": "4.0.0",
    "time_elapsed": 230070
  },
  {
    "rt": null,
    "response_type": "key",
    "key_press": null,
    "response": null,
    "avg_frame_time": 16.686206896551525,
    "center_x": 400,
    "center_y": 225,
    "trial_type": "psychophysics",
    "trial_index": 93,
    "plugin_version": "4.0.0",
    "time_elapsed": 230572
  },
  {
    "image1": "https://jatos.mindprobe.eu/publix/57c0fd80-81b3-4ba6-a41e-3f97f3d76ba1/dist/d429c5287be0e7ceba842a59a42841aa.webp",
    "image2": "https://jatos.mindprobe.eu/publix/57c0fd80-81b3-4ba6-a41e-3f97f3d76ba1/dist/7c19086664cedcdfc2bed264c3b04bfa.webp",
    "grid_items": [
      {
        "letter": "",
        "color": "white"
      },
      {
        "letter": "",
        "color": "white"
      },
      {
        "letter": "",
        "color": "white"
      },
      {
        "letter": "",
        "color": "white"
      },
      {
        "letter": "L",
        "color": "black"
      },
      {
        "letter": "G",
        "color": "black"
      },
      {
        "letter": "F",
        "color": "black"
      },
      {
        "letter": "T",
        "color": "black"
      }
    ],
    "target": {
      "letter": "N",
      "color": "black"
    },
    "gaze_direction": "left",
    "grid_position": "right",
    "target_type": "invalid",
    "block": "block-1",
    "face": "f",
    "window": {
      "dimensions": [
        1080,
        1920
      ],
      "isFullscreen": "BODY"
    },
    "rt": 1138,
    "response_type": "key",
    "key_press": "ArrowDown",
    "response": "ArrowDown",
    "avg_frame_time": 16.68450184501845,
    "center_x": 400,
    "center_y": 225,
    "trial_type": "psychophysics",
    "trial_index": 94,
    "plugin_version": "4.0.0",
    "time_elapsed": 235125
  },
  {
    "rt": null,
    "response_type": "key",
    "key_press": null,
    "response": null,
    "avg_frame_time": 16.683333333333334,
    "center_x": 400,
    "center_y": 225,
    "trial_type": "psychophysics",
    "trial_index": 95,
    "plugin_version": "4.0.0",
    "time_elapsed": 235627
  },
  {
    "image1": "https://jatos.mindprobe.eu/publix/57c0fd80-81b3-4ba6-a41e-3f97f3d76ba1/dist/1d4fc1100b57f312ef6f7e81e8502a85.webp",
    "image2": "https://jatos.mindprobe.eu/publix/57c0fd80-81b3-4ba6-a41e-3f97f3d76ba1/dist/7aa52bcb2291ad2c1eab0a1c309e9ebe.webp",
    "grid_items": [
      {
        "letter": "",
        "color": "white"
      },
      {
        "letter": "",
        "color": "white"
      },
      {
        "letter": "",
        "color": "white"
      },
      {
        "letter": "",
        "color": "white"
      },
      {
        "letter": "D",
        "color": "black"
      },
      {
        "letter": "H",
        "color": "black"
      },
      {
        "letter": "C",
        "color": "black"
      },
      {
        "letter": "F",
        "color": "black"
      }
    ],
    "target": {
      "letter": "C",
      "color": "black"
    },
    "gaze_direction": "left",
    "grid_position": "right",
    "target_type": "valid",
    "block": "block-1",
    "face": "e",
    "window": {
      "dimensions": [
        1080,
        1920
      ],
      "isFullscreen": "BODY"
    },
    "rt": 816,
    "response_type": "key",
    "key_press": "ArrowUp",
    "response": "ArrowUp",
    "avg_frame_time": 16.68366533864544,
    "center_x": 400,
    "center_y": 225,
    "trial_type": "psychophysics",
    "trial_index": 96,
    "plugin_version": "4.0.0",
    "time_elapsed": 239861
  },
  {
    "rt": null,
    "response_type": "key",
    "key_press": null,
    "response": null,
    "avg_frame_time": 16.686206896551525,
    "center_x": 400,
    "center_y": 225,
    "trial_type": "psychophysics",
    "trial_index": 97,
    "plugin_version": "4.0.0",
    "time_elapsed": 240363
  },
  {
    "image1": "https://jatos.mindprobe.eu/publix/57c0fd80-81b3-4ba6-a41e-3f97f3d76ba1/dist/40dece98c751976c5ae971fb799b576a.webp",
    "image2": "https://jatos.mindprobe.eu/publix/57c0fd80-81b3-4ba6-a41e-3f97f3d76ba1/dist/a0953907ed0c4f557cc32072c240bdb4.webp",
    "grid_items": [
      {
        "letter": "",
        "color": "white"
      },
      {
        "letter": "",
        "color": "white"
      },
      {
        "letter": "",
        "color": "white"
      },
      {
        "letter": "",
        "color": "white"
      },
      {
        "letter": "B",
        "color": "black"
      },
      {
        "letter": "T",
        "color": "black"
      },
      {
        "letter": "N",
        "color": "black"
      },
      {
        "letter": "D",
        "color": "black"
      }
    ],
    "target": {
      "letter": "T",
      "color": "black"
    },
    "gaze_direction": "right",
    "grid_position": "right",
    "target_type": "valid",
    "block": "block-1",
    "face": "b",
    "window": {
      "dimensions": [
        1080,
        1920
      ],
      "isFullscreen": "BODY"
    },
    "rt": 1020,
    "response_type": "key",
    "key_press": "ArrowUp",
    "response": "ArrowUp",
    "avg_frame_time": 16.68371212121212,
    "center_x": 400,
    "center_y": 225,
    "trial_type": "psychophysics",
    "trial_index": 98,
    "plugin_version": "4.0.0",
    "time_elapsed": 244798
  },
  {
    "rt": null,
    "response_type": "key",
    "key_press": null,
    "response": null,
    "avg_frame_time": 16.682758620689253,
    "center_x": 400,
    "center_y": 225,
    "trial_type": "psychophysics",
    "trial_index": 99,
    "plugin_version": "4.0.0",
    "time_elapsed": 245300
  },
  {
    "image1": "https://jatos.mindprobe.eu/publix/57c0fd80-81b3-4ba6-a41e-3f97f3d76ba1/dist/d429c5287be0e7ceba842a59a42841aa.webp",
    "image2": "https://jatos.mindprobe.eu/publix/57c0fd80-81b3-4ba6-a41e-3f97f3d76ba1/dist/9e284198aaef8c500a1145e962e8a4d0.webp",
    "grid_items": [
      {
        "letter": "",
        "color": "white"
      },
      {
        "letter": "",
        "color": "white"
      },
      {
        "letter": "",
        "color": "white"
      },
      {
        "letter": "",
        "color": "white"
      },
      {
        "letter": "F",
        "color": "black"
      },
      {
        "letter": "D",
        "color": "black"
      },
      {
        "letter": "B",
        "color": "black"
      },
      {
        "letter": "T",
        "color": "black"
      }
    ],
    "target": {
      "letter": "L",
      "color": "black"
    },
    "gaze_direction": "right",
    "grid_position": "right",
    "target_type": "invalid",
    "block": "block-1",
    "face": "f",
    "window": {
      "dimensions": [
        1080,
        1920
      ],
      "isFullscreen": "BODY"
    },
    "rt": 760,
    "response_type": "key",
    "key_press": "ArrowDown",
    "response": "ArrowDown",
    "avg_frame_time": 16.683935742971958,
    "center_x": 400,
    "center_y": 225,
    "trial_type": "psychophysics",
    "trial_index": 100,
    "plugin_version": "4.0.0",
    "time_elapsed": 249477
  },
  {
    "rt": null,
    "response_type": "key",
    "key_press": null,
    "response": null,
    "avg_frame_time": 16.686206896552527,
    "center_x": 400,
    "center_y": 225,
    "trial_type": "psychophysics",
    "trial_index": 101,
    "plugin_version": "4.0.0",
    "time_elapsed": 249980
  },
  {
    "image1": "https://jatos.mindprobe.eu/publix/57c0fd80-81b3-4ba6-a41e-3f97f3d76ba1/dist/0738b36f5c5284a1fbe6de5047928226.webp",
    "image2": "https://jatos.mindprobe.eu/publix/57c0fd80-81b3-4ba6-a41e-3f97f3d76ba1/dist/c2c6af7a7e254bf30109d9388b53b5d8.webp",
    "grid_items": [
      {
        "letter": "C",
        "color": "black"
      },
      {
        "letter": "B",
        "color": "black"
      },
      {
        "letter": "R",
        "color": "black"
      },
      {
        "letter": "L",
        "color": "black"
      },
      {
        "letter": "",
        "color": "white"
      },
      {
        "letter": "",
        "color": "white"
      },
      {
        "letter": "",
        "color": "white"
      },
      {
        "letter": "",
        "color": "white"
      }
    ],
    "target": {
      "letter": "C",
      "color": "black"
    },
    "gaze_direction": "left",
    "grid_position": "left",
    "target_type": "valid",
    "block": "block-1",
    "face": "d",
    "window": {
      "dimensions": [
        1080,
        1920
      ],
      "isFullscreen": "BODY"
    },
    "rt": 821,
    "response_type": "key",
    "key_press": "ArrowUp",
    "response": "ArrowUp",
    "avg_frame_time": 16.683730158730114,
    "center_x": 400,
    "center_y": 225,
    "trial_type": "psychophysics",
    "trial_index": 102,
    "plugin_version": "4.0.0",
    "time_elapsed": 254221
  },
  {
    "rt": null,
    "response_type": "key",
    "key_press": null,
    "response": null,
    "avg_frame_time": 16.682758620689253,
    "center_x": 400,
    "center_y": 225,
    "trial_type": "psychophysics",
    "trial_index": 103,
    "plugin_version": "4.0.0",
    "time_elapsed": 254723
  },
  {
    "image1": "https://jatos.mindprobe.eu/publix/57c0fd80-81b3-4ba6-a41e-3f97f3d76ba1/dist/b2b7faaf2a59bb4bdfcb862858551c57.webp",
    "image2": "https://jatos.mindprobe.eu/publix/57c0fd80-81b3-4ba6-a41e-3f97f3d76ba1/dist/afa6e6b610b3cab6c6b449a4e2dd4d02.webp",
    "grid_items": [
      {
        "letter": "",
        "color": "white"
      },
      {
        "letter": "",
        "color": "white"
      },
      {
        "letter": "",
        "color": "white"
      },
      {
        "letter": "",
        "color": "white"
      },
      {
        "letter": "B",
        "color": "black"
      },
      {
        "letter": "K",
        "color": "black"
      },
      {
        "letter": "T",
        "color": "black"
      },
      {
        "letter": "D",
        "color": "black"
      }
    ],
    "target": {
      "letter": "F",
      "color": "black"
    },
    "gaze_direction": "right",
    "grid_position": "right",
    "target_type": "invalid",
    "block": "block-1",
    "face": "a",
    "window": {
      "dimensions": [
        1080,
        1920
      ],
      "isFullscreen": "BODY"
    },
    "rt": 544,
    "response_type": "key",
    "key_press": "ArrowDown",
    "response": "ArrowDown",
    "avg_frame_time": 16.683898305084846,
    "center_x": 400,
    "center_y": 225,
    "trial_type": "psychophysics",
    "trial_index": 104,
    "plugin_version": "4.0.0",
    "time_elapsed": 258686
  },
  {
    "rt": null,
    "response_type": "key",
    "key_press": null,
    "response": null,
    "avg_frame_time": 16.682758620690258,
    "center_x": 400,
    "center_y": 225,
    "trial_type": "psychophysics",
    "trial_index": 105,
    "plugin_version": "4.0.0",
    "time_elapsed": 259188
  },
  {
    "image1": "https://jatos.mindprobe.eu/publix/57c0fd80-81b3-4ba6-a41e-3f97f3d76ba1/dist/b2b7faaf2a59bb4bdfcb862858551c57.webp",
    "image2": "https://jatos.mindprobe.eu/publix/57c0fd80-81b3-4ba6-a41e-3f97f3d76ba1/dist/a2b978bad27da55c204371f73357f1d7.webp",
    "grid_items": [
      {
        "letter": "L",
        "color": "black"
      },
      {
        "letter": "R",
        "color": "black"
      },
      {
        "letter": "B",
        "color": "black"
      },
      {
        "letter": "F",
        "color": "black"
      },
      {
        "letter": "",
        "color": "white"
      },
      {
        "letter": "",
        "color": "white"
      },
      {
        "letter": "",
        "color": "white"
      },
      {
        "letter": "",
        "color": "white"
      }
    ],
    "target": {
      "letter": "P",
      "color": "black"
    },
    "gaze_direction": "left",
    "grid_position": "left",
    "target_type": "invalid",
    "block": "block-1",
    "face": "a",
    "window": {
      "dimensions": [
        1080,
        1920
      ],
      "isFullscreen": "BODY"
    },
    "rt": 688,
    "response_type": "key",
    "key_press": "ArrowUp",
    "response": "ArrowUp",
    "avg_frame_time": 16.68360655737724,
    "center_x": 400,
    "center_y": 225,
    "trial_type": "psychophysics",
    "trial_index": 106,
    "plugin_version": "4.0.0",
    "time_elapsed": 263294
  },
  {
    "rt": null,
    "response_type": "key",
    "key_press": null,
    "response": null,
    "avg_frame_time": 16.68275862069126,
    "center_x": 400,
    "center_y": 225,
    "trial_type": "psychophysics",
    "trial_index": 107,
    "plugin_version": "4.0.0",
    "time_elapsed": 263796
  },
  {
    "image1": "https://jatos.mindprobe.eu/publix/57c0fd80-81b3-4ba6-a41e-3f97f3d76ba1/dist/36ce3cf01c34ab194e87cdb81ee9890f.webp",
    "image2": "https://jatos.mindprobe.eu/publix/57c0fd80-81b3-4ba6-a41e-3f97f3d76ba1/dist/6ef25f867bb912257ed8a75458a113f3.webp",
    "grid_items": [
      {
        "letter": "",
        "color": "white"
      },
      {
        "letter": "",
        "color": "white"
      },
      {
        "letter": "",
        "color": "white"
      },
      {
        "letter": "",
        "color": "white"
      },
      {
        "letter": "K",
        "color": "black"
      },
      {
        "letter": "H",
        "color": "black"
      },
      {
        "letter": "N",
        "color": "black"
      },
      {
        "letter": "T",
        "color": "black"
      }
    ],
    "target": {
      "letter": "K",
      "color": "black"
    },
    "gaze_direction": "left",
    "grid_position": "right",
    "target_type": "valid",
    "block": "block-1",
    "face": "c",
    "window": {
      "dimensions": [
        1080,
        1920
      ],
      "isFullscreen": "BODY"
    },
    "rt": 720,
    "response_type": "key",
    "key_press": "ArrowUp",
    "response": "ArrowUp",
    "avg_frame_time": 16.68455284552855,
    "center_x": 400,
    "center_y": 225,
    "trial_type": "psychophysics",
    "trial_index": 108,
    "plugin_version": "4.0.0",
    "time_elapsed": 267933
  },
  {
    "rt": null,
    "response_type": "key",
    "key_press": null,
    "response": null,
    "avg_frame_time": 16.682758620689253,
    "center_x": 400,
    "center_y": 225,
    "trial_type": "psychophysics",
    "trial_index": 109,
    "plugin_version": "4.0.0",
    "time_elapsed": 268443
  },
  {
    "image1": "https://jatos.mindprobe.eu/publix/57c0fd80-81b3-4ba6-a41e-3f97f3d76ba1/dist/0738b36f5c5284a1fbe6de5047928226.webp",
    "image2": "https://jatos.mindprobe.eu/publix/57c0fd80-81b3-4ba6-a41e-3f97f3d76ba1/dist/c2c6af7a7e254bf30109d9388b53b5d8.webp",
    "grid_items": [
      {
        "letter": "",
        "color": "white"
      },
      {
        "letter": "",
        "color": "white"
      },
      {
        "letter": "",
        "color": "white"
      },
      {
        "letter": "",
        "color": "white"
      },
      {
        "letter": "H",
        "color": "black"
      },
      {
        "letter": "G",
        "color": "black"
      },
      {
        "letter": "T",
        "color": "black"
      },
      {
        "letter": "L",
        "color": "black"
      }
    ],
    "target": {
      "letter": "H",
      "color": "black"
    },
    "gaze_direction": "left",
    "grid_position": "right",
    "target_type": "valid",
    "block": "block-1",
    "face": "d",
    "window": {
      "dimensions": [
        1080,
        1920
      ],
      "isFullscreen": "BODY"
    },
    "rt": 1287,
    "response_type": "key",
    "key_press": "ArrowUp",
    "response": "ArrowUp",
    "avg_frame_time": 16.68362989323835,
    "center_x": 400,
    "center_y": 225,
    "trial_type": "psychophysics",
    "trial_index": 110,
    "plugin_version": "4.0.0",
    "time_elapsed": 273150
  },
  {
    "rt": null,
    "response_type": "key",
    "key_press": null,
    "response": null,
    "avg_frame_time": 16.682758620689253,
    "center_x": 400,
    "center_y": 225,
    "trial_type": "psychophysics",
    "trial_index": 111,
    "plugin_version": "4.0.0",
    "time_elapsed": 273652
  },
  {
    "image1": "https://jatos.mindprobe.eu/publix/57c0fd80-81b3-4ba6-a41e-3f97f3d76ba1/dist/1d4fc1100b57f312ef6f7e81e8502a85.webp",
    "image2": "https://jatos.mindprobe.eu/publix/57c0fd80-81b3-4ba6-a41e-3f97f3d76ba1/dist/7aa52bcb2291ad2c1eab0a1c309e9ebe.webp",
    "grid_items": [
      {
        "letter": "K",
        "color": "black"
      },
      {
        "letter": "M",
        "color": "black"
      },
      {
        "letter": "L",
        "color": "black"
      },
      {
        "letter": "B",
        "color": "black"
      },
      {
        "letter": "",
        "color": "white"
      },
      {
        "letter": "",
        "color": "white"
      },
      {
        "letter": "",
        "color": "white"
      },
      {
        "letter": "",
        "color": "white"
      }
    ],
    "target": {
      "letter": "L",
      "color": "black"
    },
    "gaze_direction": "left",
    "grid_position": "left",
    "target_type": "valid",
    "block": "block-1",
    "face": "e",
    "window": {
      "dimensions": [
        1080,
        1920
      ],
      "isFullscreen": "BODY"
    },
    "rt": 705,
    "response_type": "key",
    "key_press": "ArrowUp",
    "response": "ArrowUp",
    "avg_frame_time": 16.683673469387756,
    "center_x": 400,
    "center_y": 225,
    "trial_type": "psychophysics",
    "trial_index": 112,
    "plugin_version": "4.0.0",
    "time_elapsed": 277782
  },
  {
    "rt": null,
    "response_type": "key",
    "key_press": null,
    "response": null,
    "avg_frame_time": 16.682758620689253,
    "center_x": 400,
    "center_y": 225,
    "trial_type": "psychophysics",
    "trial_index": 113,
    "plugin_version": "4.0.0",
    "time_elapsed": 278283
  },
  {
    "image1": "https://jatos.mindprobe.eu/publix/57c0fd80-81b3-4ba6-a41e-3f97f3d76ba1/dist/b2b7faaf2a59bb4bdfcb862858551c57.webp",
    "image2": "https://jatos.mindprobe.eu/publix/57c0fd80-81b3-4ba6-a41e-3f97f3d76ba1/dist/afa6e6b610b3cab6c6b449a4e2dd4d02.webp",
    "grid_items": [
      {
        "letter": "",
        "color": "white"
      },
      {
        "letter": "",
        "color": "white"
      },
      {
        "letter": "",
        "color": "white"
      },
      {
        "letter": "",
        "color": "white"
      },
      {
        "letter": "C",
        "color": "black"
      },
      {
        "letter": "H",
        "color": "black"
      },
      {
        "letter": "S",
        "color": "black"
      },
      {
        "letter": "P",
        "color": "black"
      }
    ],
    "target": {
      "letter": "C",
      "color": "black"
    },
    "gaze_direction": "right",
    "grid_position": "right",
    "target_type": "valid",
    "block": "block-1",
    "face": "a",
    "window": {
      "dimensions": [
        1080,
        1920
      ],
      "isFullscreen": "BODY"
    },
    "rt": 582,
    "response_type": "key",
    "key_press": "ArrowUp",
    "response": "ArrowUp",
    "avg_frame_time": 16.68403361344533,
    "center_x": 400,
    "center_y": 225,
    "trial_type": "psychophysics",
    "trial_index": 114,
    "plugin_version": "4.0.0",
    "time_elapsed": 282286
  },
  {
    "rt": null,
    "response_type": "key",
    "key_press": null,
    "response": null,
    "avg_frame_time": 16.686206896552527,
    "center_x": 400,
    "center_y": 225,
    "trial_type": "psychophysics",
    "trial_index": 115,
    "plugin_version": "4.0.0",
    "time_elapsed": 282788
  },
  {
    "image1": "https://jatos.mindprobe.eu/publix/57c0fd80-81b3-4ba6-a41e-3f97f3d76ba1/dist/0738b36f5c5284a1fbe6de5047928226.webp",
    "image2": "https://jatos.mindprobe.eu/publix/57c0fd80-81b3-4ba6-a41e-3f97f3d76ba1/dist/c2c6af7a7e254bf30109d9388b53b5d8.webp",
    "grid_items": [
      {
        "letter": "N",
        "color": "black"
      },
      {
        "letter": "G",
        "color": "black"
      },
      {
        "letter": "T",
        "color": "black"
      },
      {
        "letter": "H",
        "color": "black"
      },
      {
        "letter": "",
        "color": "white"
      },
      {
        "letter": "",
        "color": "white"
      },
      {
        "letter": "",
        "color": "white"
      },
      {
        "letter": "",
        "color": "white"
      }
    ],
    "target": {
      "letter": "S",
      "color": "black"
    },
    "gaze_direction": "left",
    "grid_position": "left",
    "target_type": "invalid",
    "block": "block-1",
    "face": "d",
    "window": {
      "dimensions": [
        1080,
        1920
      ],
      "isFullscreen": "BODY"
    },
    "rt": 634,
    "response_type": "key",
    "key_press": "ArrowDown",
    "response": "ArrowDown",
    "avg_frame_time": 16.684232365145082,
    "center_x": 400,
    "center_y": 225,
    "trial_type": "psychophysics",
    "trial_index": 116,
    "plugin_version": "4.0.0",
    "time_elapsed": 286846
  },
  {
    "rt": null,
    "response_type": "key",
    "key_press": null,
    "response": null,
    "avg_frame_time": 16.68666666666589,
    "center_x": 400,
    "center_y": 225,
    "trial_type": "psychophysics",
    "trial_index": 117,
    "plugin_version": "4.0.0",
    "time_elapsed": 287348
  },
  {
    "image1": "https://jatos.mindprobe.eu/publix/57c0fd80-81b3-4ba6-a41e-3f97f3d76ba1/dist/0738b36f5c5284a1fbe6de5047928226.webp",
    "image2": "https://jatos.mindprobe.eu/publix/57c0fd80-81b3-4ba6-a41e-3f97f3d76ba1/dist/48e5157934b56d46aee0926365abe09d.webp",
    "grid_items": [
      {
        "letter": "S",
        "color": "black"
      },
      {
        "letter": "F",
        "color": "black"
      },
      {
        "letter": "T",
        "color": "black"
      },
      {
        "letter": "B",
        "color": "black"
      },
      {
        "letter": "",
        "color": "white"
      },
      {
        "letter": "",
        "color": "white"
      },
      {
        "letter": "",
        "color": "white"
      },
      {
        "letter": "",
        "color": "white"
      }
    ],
    "target": {
      "letter": "P",
      "color": "black"
    },
    "gaze_direction": "right",
    "grid_position": "left",
    "target_type": "invalid",
    "block": "block-1",
    "face": "d",
    "window": {
      "dimensions": [
        1080,
        1920
      ],
      "isFullscreen": "BODY"
    },
    "rt": 503,
    "response_type": "key",
    "key_press": "ArrowDown",
    "response": "ArrowDown",
    "avg_frame_time": 16.68412017167392,
    "center_x": 400,
    "center_y": 225,
    "trial_type": "psychophysics",
    "trial_index": 118,
